run_id,condition,success,timeout,failed_images,failed_audio,failed_video,trial_type,trial_index,time_elapsed,internal_node_id,rt,stimulus,response,statement,case,responses,question_order,correct,recorded_at,ip,user_agent,device,browser,browser_version,platform,platform_version,source_code_version
15,1,true,false,[],[],[],preload,0,1719,0.0-0.0,"""","""","""","""","""","""","""","""","2021-12-12 20:01:46",120.230.116.95,"Mozilla/5.0 (iPad; CPU OS 15_1 like Mac OS X) AppleWebKit/605.1.15 (KHTML, like Gecko) Mobile/15E148 MicroMessenger/8.0.15(0x18000f2e) NetType/WIFI Language/zh_CN",iPad,Mozilla,,iOS,15_1,aa87705f22fdd126fa9d2c94f9500ee9
15,1,"""","""","""","""","""",html-button-response,1,5424,0.0-1.0-0.0-0.0,3698.000000000001,"<div style=""max-width:800px;""><img><img src=""inst.png"" width=""500"" height=""375""></img><p>In this experiment, you will answer questions about video clips showing moving billard balls.</p><p>The setting involves three balls labeled ""Ball A"", ""Ball B"", and ""Ball E"" correspondingly, and a red goal with goal posts as shown above.</p><p>Sometimes the goal is on the left side, and sometimes it's on the right side.</p></div>",0,"""","""","""","""","""","2021-12-12 20:01:46",120.230.116.95,"Mozilla/5.0 (iPad; CPU OS 15_1 like Mac OS X) AppleWebKit/605.1.15 (KHTML, like Gecko) Mobile/15E148 MicroMessenger/8.0.15(0x18000f2e) NetType/WIFI Language/zh_CN",iPad,Mozilla,,iOS,15_1,aa87705f22fdd126fa9d2c94f9500ee9
15,1,"""","""","""","""","""",html-button-response,2,8190,0.0-1.0-0.0-1.0,2764,"<div style=""max-width:800px;""><img><img src=""inst.png"" width=""500"" height=""375""></img><p>At some point the video clip will pause, and you will be asked to predict what will happen next. We won't give you feedback as to whether your prediction was right or wrong.</p><p>Notice that there is <b>no friction</b> in this setting. This means that balls don't slow down over time.</p><p>Click on the play button to play this video.</p></div>",0,"""","""","""","""","""","2021-12-12 20:01:46",120.230.116.95,"Mozilla/5.0 (iPad; CPU OS 15_1 like Mac OS X) AppleWebKit/605.1.15 (KHTML, like Gecko) Mobile/15E148 MicroMessenger/8.0.15(0x18000f2e) NetType/WIFI Language/zh_CN",iPad,Mozilla,,iOS,15_1,aa87705f22fdd126fa9d2c94f9500ee9
15,1,"""","""","""","""","""",video-button-response,3,21294,0.0-1.0-0.0-2.0,13088,"[""instruction.mp4""]",0,"""","""","""","""","""","2021-12-12 20:01:46",120.230.116.95,"Mozilla/5.0 (iPad; CPU OS 15_1 like Mac OS X) AppleWebKit/605.1.15 (KHTML, like Gecko) Mobile/15E148 MicroMessenger/8.0.15(0x18000f2e) NetType/WIFI Language/zh_CN",iPad,Mozilla,,iOS,15_1,aa87705f22fdd126fa9d2c94f9500ee9
15,1,"""","""","""","""","""",video-button-response,4,27522,0.0-1.0-0.0-3.0,null,"[""instruction.mp4""]",null,"""","""","""","""","""","2021-12-12 20:01:46",120.230.116.95,"Mozilla/5.0 (iPad; CPU OS 15_1 like Mac OS X) AppleWebKit/605.1.15 (KHTML, like Gecko) Mobile/15E148 MicroMessenger/8.0.15(0x18000f2e) NetType/WIFI Language/zh_CN",iPad,Mozilla,,iOS,15_1,aa87705f22fdd126fa9d2c94f9500ee9
15,1,"""","""","""","""","""",html-slider-response,5,58997,0.0-1.0-0.0-4.0,"""","""","""",None,instruction,95,"""","""","2021-12-12 20:01:46",120.230.116.95,"Mozilla/5.0 (iPad; CPU OS 15_1 like Mac OS X) AppleWebKit/605.1.15 (KHTML, like Gecko) Mobile/15E148 MicroMessenger/8.0.15(0x18000f2e) NetType/WIFI Language/zh_CN",iPad,Mozilla,,iOS,15_1,aa87705f22fdd126fa9d2c94f9500ee9
15,1,"""","""","""","""","""",html-button-response,6,90353,0.0-1.0-0.0-5.0,31353,"<div style=""max-width:800px;""><img src=""inst.png"" width=""500"" height=""375""></img><p>You will now watch the video clip three more times and answer the following comprehension questions:</p><p>If <span style='color:green; font-weight: bold' >ball A</span> had not been presented, would <b>ball E</b> have gone through the gate?</p><p>If <span style='color:blue; font-weight: bold' >ball B</span> had not been presented, would <b>ball E</b> have gone through the gate?</p></div>",0,"""","""","""","""","""","2021-12-12 20:01:46",120.230.116.95,"Mozilla/5.0 (iPad; CPU OS 15_1 like Mac OS X) AppleWebKit/605.1.15 (KHTML, like Gecko) Mobile/15E148 MicroMessenger/8.0.15(0x18000f2e) NetType/WIFI Language/zh_CN",iPad,Mozilla,,iOS,15_1,aa87705f22fdd126fa9d2c94f9500ee9
15,1,"""","""","""","""","""",video-button-response,7,98450,0.0-1.0-0.0-6.0,8092,"[""instruction.mp4""]",0,"""","""","""","""","""","2021-12-12 20:01:46",120.230.116.95,"Mozilla/5.0 (iPad; CPU OS 15_1 like Mac OS X) AppleWebKit/605.1.15 (KHTML, like Gecko) Mobile/15E148 MicroMessenger/8.0.15(0x18000f2e) NetType/WIFI Language/zh_CN",iPad,Mozilla,,iOS,15_1,aa87705f22fdd126fa9d2c94f9500ee9
15,1,"""","""","""","""","""",video-button-response,8,110866,0.0-1.0-0.0-7.0,12413,"[""instruction.mp4""]",0,"""","""","""","""","""","2021-12-12 20:01:46",120.230.116.95,"Mozilla/5.0 (iPad; CPU OS 15_1 like Mac OS X) AppleWebKit/605.1.15 (KHTML, like Gecko) Mobile/15E148 MicroMessenger/8.0.15(0x18000f2e) NetType/WIFI Language/zh_CN",iPad,Mozilla,,iOS,15_1,aa87705f22fdd126fa9d2c94f9500ee9
15,1,"""","""","""","""","""",video-button-response,9,117094,0.0-1.0-0.0-8.0,null,"[""instruction.mp4""]",null,"""","""","""","""","""","2021-12-12 20:01:46",120.230.116.95,"Mozilla/5.0 (iPad; CPU OS 15_1 like Mac OS X) AppleWebKit/605.1.15 (KHTML, like Gecko) Mobile/15E148 MicroMessenger/8.0.15(0x18000f2e) NetType/WIFI Language/zh_CN",iPad,Mozilla,,iOS,15_1,aa87705f22fdd126fa9d2c94f9500ee9
15,1,"""","""","""","""","""",survey-multi-choice,10,157073,0.0-1.0-1.0,"""","""","""","""","""","{""ballA"":""No"",""ballB"":""Yes"",""friction"":""Yes""}","[0,1,2]",false,"2021-12-12 20:01:46",120.230.116.95,"Mozilla/5.0 (iPad; CPU OS 15_1 like Mac OS X) AppleWebKit/605.1.15 (KHTML, like Gecko) Mobile/15E148 MicroMessenger/8.0.15(0x18000f2e) NetType/WIFI Language/zh_CN",iPad,Mozilla,,iOS,15_1,aa87705f22fdd126fa9d2c94f9500ee9
15,1,"""","""","""","""","""",html-button-response,11,162254,0.0-1.0-2.0-0.0,5170.999999999971,"Unfortunately, you missed some of the comprehension questions.</p> <p>Please review the instructions again.",0,"""","""","""","""","""","2021-12-12 20:01:46",120.230.116.95,"Mozilla/5.0 (iPad; CPU OS 15_1 like Mac OS X) AppleWebKit/605.1.15 (KHTML, like Gecko) Mobile/15E148 MicroMessenger/8.0.15(0x18000f2e) NetType/WIFI Language/zh_CN",iPad,Mozilla,,iOS,15_1,aa87705f22fdd126fa9d2c94f9500ee9
15,1,"""","""","""","""","""",html-button-response,12,172225,0.0-1.1-0.1-0.1,9968.99999999997,"<div style=""max-width:800px;""><img><img src=""inst.png"" width=""500"" height=""375""></img><p>In this experiment, you will answer questions about video clips showing moving billard balls.</p><p>The setting involves three balls labeled ""Ball A"", ""Ball B"", and ""Ball E"" correspondingly, and a red goal with goal posts as shown above.</p><p>Sometimes the goal is on the left side, and sometimes it's on the right side.</p></div>",0,"""","""","""","""","""","2021-12-12 20:01:46",120.230.116.95,"Mozilla/5.0 (iPad; CPU OS 15_1 like Mac OS X) AppleWebKit/605.1.15 (KHTML, like Gecko) Mobile/15E148 MicroMessenger/8.0.15(0x18000f2e) NetType/WIFI Language/zh_CN",iPad,Mozilla,,iOS,15_1,aa87705f22fdd126fa9d2c94f9500ee9
15,1,"""","""","""","""","""",html-button-response,13,179089,0.0-1.1-0.1-1.1,6858,"<div style=""max-width:800px;""><img><img src=""inst.png"" width=""500"" height=""375""></img><p>At some point the video clip will pause, and you will be asked to predict what will happen next. We won't give you feedback as to whether your prediction was right or wrong.</p><p>Notice that there is <b>no friction</b> in this setting. This means that balls don't slow down over time.</p><p>Click on the play button to play this video.</p></div>",0,"""","""","""","""","""","2021-12-12 20:01:46",120.230.116.95,"Mozilla/5.0 (iPad; CPU OS 15_1 like Mac OS X) AppleWebKit/605.1.15 (KHTML, like Gecko) Mobile/15E148 MicroMessenger/8.0.15(0x18000f2e) NetType/WIFI Language/zh_CN",iPad,Mozilla,,iOS,15_1,aa87705f22fdd126fa9d2c94f9500ee9
15,1,"""","""","""","""","""",video-button-response,14,186457,0.0-1.1-0.1-2.1,7365,"[""instruction.mp4""]",0,"""","""","""","""","""","2021-12-12 20:01:46",120.230.116.95,"Mozilla/5.0 (iPad; CPU OS 15_1 like Mac OS X) AppleWebKit/605.1.15 (KHTML, like Gecko) Mobile/15E148 MicroMessenger/8.0.15(0x18000f2e) NetType/WIFI Language/zh_CN",iPad,Mozilla,,iOS,15_1,aa87705f22fdd126fa9d2c94f9500ee9
15,1,"""","""","""","""","""",video-button-response,15,192685,0.0-1.1-0.1-3.1,null,"[""instruction.mp4""]",null,"""","""","""","""","""","2021-12-12 20:01:46",120.230.116.95,"Mozilla/5.0 (iPad; CPU OS 15_1 like Mac OS X) AppleWebKit/605.1.15 (KHTML, like Gecko) Mobile/15E148 MicroMessenger/8.0.15(0x18000f2e) NetType/WIFI Language/zh_CN",iPad,Mozilla,,iOS,15_1,aa87705f22fdd126fa9d2c94f9500ee9
15,1,"""","""","""","""","""",html-slider-response,16,196244,0.0-1.1-0.1-4.1,"""","""","""",None,instruction,95,"""","""","2021-12-12 20:01:46",120.230.116.95,"Mozilla/5.0 (iPad; CPU OS 15_1 like Mac OS X) AppleWebKit/605.1.15 (KHTML, like Gecko) Mobile/15E148 MicroMessenger/8.0.15(0x18000f2e) NetType/WIFI Language/zh_CN",iPad,Mozilla,,iOS,15_1,aa87705f22fdd126fa9d2c94f9500ee9
15,1,"""","""","""","""","""",html-button-response,17,198524,0.0-1.1-0.1-5.1,2276.000000000029,"<div style=""max-width:800px;""><img src=""inst.png"" width=""500"" height=""375""></img><p>You will now watch the video clip three more times and answer the following comprehension questions:</p><p>If <span style='color:green; font-weight: bold' >ball A</span> had not been presented, would <b>ball E</b> have gone through the gate?</p><p>If <span style='color:blue; font-weight: bold' >ball B</span> had not been presented, would <b>ball E</b> have gone through the gate?</p></div>",0,"""","""","""","""","""","2021-12-12 20:01:46",120.230.116.95,"Mozilla/5.0 (iPad; CPU OS 15_1 like Mac OS X) AppleWebKit/605.1.15 (KHTML, like Gecko) Mobile/15E148 MicroMessenger/8.0.15(0x18000f2e) NetType/WIFI Language/zh_CN",iPad,Mozilla,,iOS,15_1,aa87705f22fdd126fa9d2c94f9500ee9
15,1,"""","""","""","""","""",video-button-response,18,205591,0.0-1.1-0.1-6.1,7065,"[""instruction.mp4""]",0,"""","""","""","""","""","2021-12-12 20:01:46",120.230.116.95,"Mozilla/5.0 (iPad; CPU OS 15_1 like Mac OS X) AppleWebKit/605.1.15 (KHTML, like Gecko) Mobile/15E148 MicroMessenger/8.0.15(0x18000f2e) NetType/WIFI Language/zh_CN",iPad,Mozilla,,iOS,15_1,aa87705f22fdd126fa9d2c94f9500ee9
15,1,"""","""","""","""","""",video-button-response,19,212525,0.0-1.1-0.1-7.1,6929,"[""instruction.mp4""]",0,"""","""","""","""","""","2021-12-12 20:01:46",120.230.116.95,"Mozilla/5.0 (iPad; CPU OS 15_1 like Mac OS X) AppleWebKit/605.1.15 (KHTML, like Gecko) Mobile/15E148 MicroMessenger/8.0.15(0x18000f2e) NetType/WIFI Language/zh_CN",iPad,Mozilla,,iOS,15_1,aa87705f22fdd126fa9d2c94f9500ee9
15,1,"""","""","""","""","""",video-button-response,20,218753,0.0-1.1-0.1-8.1,null,"[""instruction.mp4""]",null,"""","""","""","""","""","2021-12-12 20:01:46",120.230.116.95,"Mozilla/5.0 (iPad; CPU OS 15_1 like Mac OS X) AppleWebKit/605.1.15 (KHTML, like Gecko) Mobile/15E148 MicroMessenger/8.0.15(0x18000f2e) NetType/WIFI Language/zh_CN",iPad,Mozilla,,iOS,15_1,aa87705f22fdd126fa9d2c94f9500ee9
15,1,"""","""","""","""","""",survey-multi-choice,21,226262,0.0-1.1-1.1,"""","""","""","""","""","{""ballA"":""No"",""ballB"":""Yes"",""friction"":""No""}","[0,1,2]",true,"2021-12-12 20:01:46",120.230.116.95,"Mozilla/5.0 (iPad; CPU OS 15_1 like Mac OS X) AppleWebKit/605.1.15 (KHTML, like Gecko) Mobile/15E148 MicroMessenger/8.0.15(0x18000f2e) NetType/WIFI Language/zh_CN",iPad,Mozilla,,iOS,15_1,aa87705f22fdd126fa9d2c94f9500ee9
15,1,"""","""","""","""","""",html-button-response,22,231060,0.0-2.0,4792,"<div style=max-width:800px;><p> Correct! You will now begin the actual experiment.</p><p> This experiment will be divided into two blocks, and will take about 15-20 minutes to complete(including break).</p><p> There will be a 5-minute break between the two blocks, and you may not start the second block before the 5 minutes break expires.</p><p> You can do anything during the break, and do not have to come back exactly after 5 minutes (you can come back anytime after 5 minutes).</p><p>Click the start button whenever you are ready.</p> </div>",0,"""","""","""","""","""","2021-12-12 20:01:46",120.230.116.95,"Mozilla/5.0 (iPad; CPU OS 15_1 like Mac OS X) AppleWebKit/605.1.15 (KHTML, like Gecko) Mobile/15E148 MicroMessenger/8.0.15(0x18000f2e) NetType/WIFI Language/zh_CN",iPad,Mozilla,,iOS,15_1,aa87705f22fdd126fa9d2c94f9500ee9
15,1,"""","""","""","""","""",html-button-response,23,241978,0.0-3.0,10912,"<div style=""max-width:1000px;""><br /><br /><br /><br /><br /><p> In this part of the experiment, you will be asked to answer this question:</p><br /><p>Is <span style='color:green; font-weight: bold' >ball A</span> a cause of <b>ball E</b> going through the <span style='color:red; font-weight: bold' >goal</span>?</p><br /><br /></div>",0,"""","""","""","""","""","2021-12-12 20:01:46",120.230.116.95,"Mozilla/5.0 (iPad; CPU OS 15_1 like Mac OS X) AppleWebKit/605.1.15 (KHTML, like Gecko) Mobile/15E148 MicroMessenger/8.0.15(0x18000f2e) NetType/WIFI Language/zh_CN",iPad,Mozilla,,iOS,15_1,aa87705f22fdd126fa9d2c94f9500ee9
15,1,"""","""","""","""","""",html-button-response,24,246078,0.0-4.0-0.0,4097,"<div style=""max-width:1000px;""><img><img src=""Case9.png"" width=""500"" height=""375""></img><p>Is <span style='color:green; font-weight: bold' >ball A</span> a cause of <b>ball E</b> going through the <span style='color:red; font-weight: bold' >goal</span>?</p><br /><br /></div>",0,"""","""","""","""","""","2021-12-12 20:01:46",120.230.116.95,"Mozilla/5.0 (iPad; CPU OS 15_1 like Mac OS X) AppleWebKit/605.1.15 (KHTML, like Gecko) Mobile/15E148 MicroMessenger/8.0.15(0x18000f2e) NetType/WIFI Language/zh_CN",iPad,Mozilla,,iOS,15_1,aa87705f22fdd126fa9d2c94f9500ee9
15,1,"""","""","""","""","""",video-button-response,25,256163,0.0-4.0-1.0,10078,"[""Case9_Stim.mp4""]",0,"""","""","""","""","""","2021-12-12 20:01:46",120.230.116.95,"Mozilla/5.0 (iPad; CPU OS 15_1 like Mac OS X) AppleWebKit/605.1.15 (KHTML, like Gecko) Mobile/15E148 MicroMessenger/8.0.15(0x18000f2e) NetType/WIFI Language/zh_CN",iPad,Mozilla,,iOS,15_1,aa87705f22fdd126fa9d2c94f9500ee9
15,1,"""","""","""","""","""",video-button-response,26,262387,0.0-4.0-2.0,null,"[""Case9_Stim.mp4""]",null,"""","""","""","""","""","2021-12-12 20:01:46",120.230.116.95,"Mozilla/5.0 (iPad; CPU OS 15_1 like Mac OS X) AppleWebKit/605.1.15 (KHTML, like Gecko) Mobile/15E148 MicroMessenger/8.0.15(0x18000f2e) NetType/WIFI Language/zh_CN",iPad,Mozilla,,iOS,15_1,aa87705f22fdd126fa9d2c94f9500ee9
15,1,"""","""","""","""","""",html-slider-response,27,269199,0.0-4.0-3.0,"""","""","""","<p>Is <span style='color:green; font-weight: bold' >ball A</span> a cause of <b>ball E</b> going through the <span style='color:red; font-weight: bold' >goal</span>?</p>",Case9_Stim.mp4,4,"""","""","2021-12-12 20:01:46",120.230.116.95,"Mozilla/5.0 (iPad; CPU OS 15_1 like Mac OS X) AppleWebKit/605.1.15 (KHTML, like Gecko) Mobile/15E148 MicroMessenger/8.0.15(0x18000f2e) NetType/WIFI Language/zh_CN",iPad,Mozilla,,iOS,15_1,aa87705f22fdd126fa9d2c94f9500ee9
15,1,"""","""","""","""","""",html-button-response,28,272113,0.0-4.0-0.1,2909,"<div style=""max-width:1000px;""><img><img src=""Case16.png"" width=""500"" height=""375""></img><p>Is <span style='color:green; font-weight: bold' >ball A</span> a cause of <b>ball E</b> going through the <span style='color:red; font-weight: bold' >goal</span>?</p><br /><br /></div>",0,"""","""","""","""","""","2021-12-12 20:01:46",120.230.116.95,"Mozilla/5.0 (iPad; CPU OS 15_1 like Mac OS X) AppleWebKit/605.1.15 (KHTML, like Gecko) Mobile/15E148 MicroMessenger/8.0.15(0x18000f2e) NetType/WIFI Language/zh_CN",iPad,Mozilla,,iOS,15_1,aa87705f22fdd126fa9d2c94f9500ee9
15,1,"""","""","""","""","""",video-button-response,29,280200,0.0-4.0-1.1,8081.000000000058,"[""Case16_Stim.mp4""]",0,"""","""","""","""","""","2021-12-12 20:01:46",120.230.116.95,"Mozilla/5.0 (iPad; CPU OS 15_1 like Mac OS X) AppleWebKit/605.1.15 (KHTML, like Gecko) Mobile/15E148 MicroMessenger/8.0.15(0x18000f2e) NetType/WIFI Language/zh_CN",iPad,Mozilla,,iOS,15_1,aa87705f22fdd126fa9d2c94f9500ee9
15,1,"""","""","""","""","""",video-button-response,30,286423,0.0-4.0-2.1,null,"[""Case16_Stim.mp4""]",null,"""","""","""","""","""","2021-12-12 20:01:46",120.230.116.95,"Mozilla/5.0 (iPad; CPU OS 15_1 like Mac OS X) AppleWebKit/605.1.15 (KHTML, like Gecko) Mobile/15E148 MicroMessenger/8.0.15(0x18000f2e) NetType/WIFI Language/zh_CN",iPad,Mozilla,,iOS,15_1,aa87705f22fdd126fa9d2c94f9500ee9
15,1,"""","""","""","""","""",html-slider-response,31,289921,0.0-4.0-3.1,"""","""","""","<p>Is <span style='color:green; font-weight: bold' >ball A</span> a cause of <b>ball E</b> going through the <span style='color:red; font-weight: bold' >goal</span>?</p>",Case16_Stim.mp4,95,"""","""","2021-12-12 20:01:46",120.230.116.95,"Mozilla/5.0 (iPad; CPU OS 15_1 like Mac OS X) AppleWebKit/605.1.15 (KHTML, like Gecko) Mobile/15E148 MicroMessenger/8.0.15(0x18000f2e) NetType/WIFI Language/zh_CN",iPad,Mozilla,,iOS,15_1,aa87705f22fdd126fa9d2c94f9500ee9
15,1,"""","""","""","""","""",html-button-response,32,291782,0.0-4.0-0.2,1859,"<div style=""max-width:1000px;""><img><img src=""Case7.png"" width=""500"" height=""375""></img><p>Is <span style='color:green; font-weight: bold' >ball A</span> a cause of <b>ball E</b> going through the <span style='color:red; font-weight: bold' >goal</span>?</p><br /><br /></div>",0,"""","""","""","""","""","2021-12-12 20:01:46",120.230.116.95,"Mozilla/5.0 (iPad; CPU OS 15_1 like Mac OS X) AppleWebKit/605.1.15 (KHTML, like Gecko) Mobile/15E148 MicroMessenger/8.0.15(0x18000f2e) NetType/WIFI Language/zh_CN",iPad,Mozilla,,iOS,15_1,aa87705f22fdd126fa9d2c94f9500ee9
15,1,"""","""","""","""","""",video-button-response,33,299605,0.0-4.0-1.2,7820,"[""Case7_Stim.mp4""]",0,"""","""","""","""","""","2021-12-12 20:01:46",120.230.116.95,"Mozilla/5.0 (iPad; CPU OS 15_1 like Mac OS X) AppleWebKit/605.1.15 (KHTML, like Gecko) Mobile/15E148 MicroMessenger/8.0.15(0x18000f2e) NetType/WIFI Language/zh_CN",iPad,Mozilla,,iOS,15_1,aa87705f22fdd126fa9d2c94f9500ee9
15,1,"""","""","""","""","""",video-button-response,34,305830,0.0-4.0-2.2,null,"[""Case7_Stim.mp4""]",null,"""","""","""","""","""","2021-12-12 20:01:46",120.230.116.95,"Mozilla/5.0 (iPad; CPU OS 15_1 like Mac OS X) AppleWebKit/605.1.15 (KHTML, like Gecko) Mobile/15E148 MicroMessenger/8.0.15(0x18000f2e) NetType/WIFI Language/zh_CN",iPad,Mozilla,,iOS,15_1,aa87705f22fdd126fa9d2c94f9500ee9
15,1,"""","""","""","""","""",html-slider-response,35,308303,0.0-4.0-3.2,"""","""","""","<p>Is <span style='color:green; font-weight: bold' >ball A</span> a cause of <b>ball E</b> going through the <span style='color:red; font-weight: bold' >goal</span>?</p>",Case7_Stim.mp4,96,"""","""","2021-12-12 20:01:46",120.230.116.95,"Mozilla/5.0 (iPad; CPU OS 15_1 like Mac OS X) AppleWebKit/605.1.15 (KHTML, like Gecko) Mobile/15E148 MicroMessenger/8.0.15(0x18000f2e) NetType/WIFI Language/zh_CN",iPad,Mozilla,,iOS,15_1,aa87705f22fdd126fa9d2c94f9500ee9
15,1,"""","""","""","""","""",html-button-response,36,311268,0.0-4.0-0.3,2959,"<div style=""max-width:1000px;""><img><img src=""Case10.png"" width=""500"" height=""375""></img><p>Is <span style='color:green; font-weight: bold' >ball A</span> a cause of <b>ball E</b> going through the <span style='color:red; font-weight: bold' >goal</span>?</p><br /><br /></div>",0,"""","""","""","""","""","2021-12-12 20:01:46",120.230.116.95,"Mozilla/5.0 (iPad; CPU OS 15_1 like Mac OS X) AppleWebKit/605.1.15 (KHTML, like Gecko) Mobile/15E148 MicroMessenger/8.0.15(0x18000f2e) NetType/WIFI Language/zh_CN",iPad,Mozilla,,iOS,15_1,aa87705f22fdd126fa9d2c94f9500ee9
15,1,"""","""","""","""","""",video-button-response,37,318902,0.0-4.0-1.3,7631.000000000058,"[""Case10_Stim.mp4""]",0,"""","""","""","""","""","2021-12-12 20:01:46",120.230.116.95,"Mozilla/5.0 (iPad; CPU OS 15_1 like Mac OS X) AppleWebKit/605.1.15 (KHTML, like Gecko) Mobile/15E148 MicroMessenger/8.0.15(0x18000f2e) NetType/WIFI Language/zh_CN",iPad,Mozilla,,iOS,15_1,aa87705f22fdd126fa9d2c94f9500ee9
15,1,"""","""","""","""","""",video-button-response,38,325133,0.0-4.0-2.3,null,"[""Case10_Stim.mp4""]",null,"""","""","""","""","""","2021-12-12 20:01:46",120.230.116.95,"Mozilla/5.0 (iPad; CPU OS 15_1 like Mac OS X) AppleWebKit/605.1.15 (KHTML, like Gecko) Mobile/15E148 MicroMessenger/8.0.15(0x18000f2e) NetType/WIFI Language/zh_CN",iPad,Mozilla,,iOS,15_1,aa87705f22fdd126fa9d2c94f9500ee9
15,1,"""","""","""","""","""",html-slider-response,39,328604,0.0-4.0-3.3,"""","""","""","<p>Is <span style='color:green; font-weight: bold' >ball A</span> a cause of <b>ball E</b> going through the <span style='color:red; font-weight: bold' >goal</span>?</p>",Case10_Stim.mp4,4,"""","""","2021-12-12 20:01:46",120.230.116.95,"Mozilla/5.0 (iPad; CPU OS 15_1 like Mac OS X) AppleWebKit/605.1.15 (KHTML, like Gecko) Mobile/15E148 MicroMessenger/8.0.15(0x18000f2e) NetType/WIFI Language/zh_CN",iPad,Mozilla,,iOS,15_1,aa87705f22fdd126fa9d2c94f9500ee9
15,1,"""","""","""","""","""",html-button-response,40,330935,0.0-4.0-0.4,2191.999999999942,"<div style=""max-width:1000px;""><img><img src=""Case1.png"" width=""500"" height=""375""></img><p>Is <span style='color:green; font-weight: bold' >ball A</span> a cause of <b>ball E</b> going through the <span style='color:red; font-weight: bold' >goal</span>?</p><br /><br /></div>",0,"""","""","""","""","""","2021-12-12 20:01:46",120.230.116.95,"Mozilla/5.0 (iPad; CPU OS 15_1 like Mac OS X) AppleWebKit/605.1.15 (KHTML, like Gecko) Mobile/15E148 MicroMessenger/8.0.15(0x18000f2e) NetType/WIFI Language/zh_CN",iPad,Mozilla,,iOS,15_1,aa87705f22fdd126fa9d2c94f9500ee9
15,1,"""","""","""","""","""",video-button-response,41,341114,0.0-4.0-1.4,10176,"[""Case1_Stim.mp4""]",0,"""","""","""","""","""","2021-12-12 20:01:46",120.230.116.95,"Mozilla/5.0 (iPad; CPU OS 15_1 like Mac OS X) AppleWebKit/605.1.15 (KHTML, like Gecko) Mobile/15E148 MicroMessenger/8.0.15(0x18000f2e) NetType/WIFI Language/zh_CN",iPad,Mozilla,,iOS,15_1,aa87705f22fdd126fa9d2c94f9500ee9
15,1,"""","""","""","""","""",video-button-response,42,347338,0.0-4.0-2.4,null,"[""Case1_Stim.mp4""]",null,"""","""","""","""","""","2021-12-12 20:01:46",120.230.116.95,"Mozilla/5.0 (iPad; CPU OS 15_1 like Mac OS X) AppleWebKit/605.1.15 (KHTML, like Gecko) Mobile/15E148 MicroMessenger/8.0.15(0x18000f2e) NetType/WIFI Language/zh_CN",iPad,Mozilla,,iOS,15_1,aa87705f22fdd126fa9d2c94f9500ee9
15,1,"""","""","""","""","""",html-slider-response,43,350173,0.0-4.0-3.4,"""","""","""","<p>Is <span style='color:green; font-weight: bold' >ball A</span> a cause of <b>ball E</b> going through the <span style='color:red; font-weight: bold' >goal</span>?</p>",Case1_Stim.mp4,50,"""","""","2021-12-12 20:01:46",120.230.116.95,"Mozilla/5.0 (iPad; CPU OS 15_1 like Mac OS X) AppleWebKit/605.1.15 (KHTML, like Gecko) Mobile/15E148 MicroMessenger/8.0.15(0x18000f2e) NetType/WIFI Language/zh_CN",iPad,Mozilla,,iOS,15_1,aa87705f22fdd126fa9d2c94f9500ee9
15,1,"""","""","""","""","""",html-button-response,44,354994,0.0-4.0-0.5,4815,"<div style=""max-width:1000px;""><img><img src=""Case2.png"" width=""500"" height=""375""></img><p>Is <span style='color:green; font-weight: bold' >ball A</span> a cause of <b>ball E</b> going through the <span style='color:red; font-weight: bold' >goal</span>?</p><br /><br /></div>",0,"""","""","""","""","""","2021-12-12 20:01:46",120.230.116.95,"Mozilla/5.0 (iPad; CPU OS 15_1 like Mac OS X) AppleWebKit/605.1.15 (KHTML, like Gecko) Mobile/15E148 MicroMessenger/8.0.15(0x18000f2e) NetType/WIFI Language/zh_CN",iPad,Mozilla,,iOS,15_1,aa87705f22fdd126fa9d2c94f9500ee9
15,1,"""","""","""","""","""",video-button-response,45,362856,0.0-4.0-1.5,7860.000000000058,"[""Case2_Stim.mp4""]",0,"""","""","""","""","""","2021-12-12 20:01:46",120.230.116.95,"Mozilla/5.0 (iPad; CPU OS 15_1 like Mac OS X) AppleWebKit/605.1.15 (KHTML, like Gecko) Mobile/15E148 MicroMessenger/8.0.15(0x18000f2e) NetType/WIFI Language/zh_CN",iPad,Mozilla,,iOS,15_1,aa87705f22fdd126fa9d2c94f9500ee9
15,1,"""","""","""","""","""",video-button-response,46,369084,0.0-4.0-2.5,null,"[""Case2_Stim.mp4""]",null,"""","""","""","""","""","2021-12-12 20:01:46",120.230.116.95,"Mozilla/5.0 (iPad; CPU OS 15_1 like Mac OS X) AppleWebKit/605.1.15 (KHTML, like Gecko) Mobile/15E148 MicroMessenger/8.0.15(0x18000f2e) NetType/WIFI Language/zh_CN",iPad,Mozilla,,iOS,15_1,aa87705f22fdd126fa9d2c94f9500ee9
15,1,"""","""","""","""","""",html-slider-response,47,374693,0.0-4.0-3.5,"""","""","""","<p>Is <span style='color:green; font-weight: bold' >ball A</span> a cause of <b>ball E</b> going through the <span style='color:red; font-weight: bold' >goal</span>?</p>",Case2_Stim.mp4,99,"""","""","2021-12-12 20:01:46",120.230.116.95,"Mozilla/5.0 (iPad; CPU OS 15_1 like Mac OS X) AppleWebKit/605.1.15 (KHTML, like Gecko) Mobile/15E148 MicroMessenger/8.0.15(0x18000f2e) NetType/WIFI Language/zh_CN",iPad,Mozilla,,iOS,15_1,aa87705f22fdd126fa9d2c94f9500ee9
15,1,"""","""","""","""","""",html-button-response,48,378024,0.0-4.0-0.6,3325,"<div style=""max-width:1000px;""><img><img src=""Case12.png"" width=""500"" height=""375""></img><p>Is <span style='color:green; font-weight: bold' >ball A</span> a cause of <b>ball E</b> going through the <span style='color:red; font-weight: bold' >goal</span>?</p><br /><br /></div>",0,"""","""","""","""","""","2021-12-12 20:01:46",120.230.116.95,"Mozilla/5.0 (iPad; CPU OS 15_1 like Mac OS X) AppleWebKit/605.1.15 (KHTML, like Gecko) Mobile/15E148 MicroMessenger/8.0.15(0x18000f2e) NetType/WIFI Language/zh_CN",iPad,Mozilla,,iOS,15_1,aa87705f22fdd126fa9d2c94f9500ee9
15,1,"""","""","""","""","""",video-button-response,49,386492,0.0-4.0-1.6,8465,"[""Case12_Stim.mp4""]",0,"""","""","""","""","""","2021-12-12 20:01:46",120.230.116.95,"Mozilla/5.0 (iPad; CPU OS 15_1 like Mac OS X) AppleWebKit/605.1.15 (KHTML, like Gecko) Mobile/15E148 MicroMessenger/8.0.15(0x18000f2e) NetType/WIFI Language/zh_CN",iPad,Mozilla,,iOS,15_1,aa87705f22fdd126fa9d2c94f9500ee9
15,1,"""","""","""","""","""",video-button-response,50,392726,0.0-4.0-2.6,null,"[""Case12_Stim.mp4""]",null,"""","""","""","""","""","2021-12-12 20:01:46",120.230.116.95,"Mozilla/5.0 (iPad; CPU OS 15_1 like Mac OS X) AppleWebKit/605.1.15 (KHTML, like Gecko) Mobile/15E148 MicroMessenger/8.0.15(0x18000f2e) NetType/WIFI Language/zh_CN",iPad,Mozilla,,iOS,15_1,aa87705f22fdd126fa9d2c94f9500ee9
15,1,"""","""","""","""","""",html-slider-response,51,395862,0.0-4.0-3.6,"""","""","""","<p>Is <span style='color:green; font-weight: bold' >ball A</span> a cause of <b>ball E</b> going through the <span style='color:red; font-weight: bold' >goal</span>?</p>",Case12_Stim.mp4,100,"""","""","2021-12-12 20:01:46",120.230.116.95,"Mozilla/5.0 (iPad; CPU OS 15_1 like Mac OS X) AppleWebKit/605.1.15 (KHTML, like Gecko) Mobile/15E148 MicroMessenger/8.0.15(0x18000f2e) NetType/WIFI Language/zh_CN",iPad,Mozilla,,iOS,15_1,aa87705f22fdd126fa9d2c94f9500ee9
15,1,"""","""","""","""","""",html-button-response,52,397344,0.0-4.0-0.7,1474.9999999999418,"<div style=""max-width:1000px;""><img><img src=""Case17.png"" width=""500"" height=""375""></img><p>Is <span style='color:green; font-weight: bold' >ball A</span> a cause of <b>ball E</b> going through the <span style='color:red; font-weight: bold' >goal</span>?</p><br /><br /></div>",0,"""","""","""","""","""","2021-12-12 20:01:46",120.230.116.95,"Mozilla/5.0 (iPad; CPU OS 15_1 like Mac OS X) AppleWebKit/605.1.15 (KHTML, like Gecko) Mobile/15E148 MicroMessenger/8.0.15(0x18000f2e) NetType/WIFI Language/zh_CN",iPad,Mozilla,,iOS,15_1,aa87705f22fdd126fa9d2c94f9500ee9
15,1,"""","""","""","""","""",video-button-response,53,405009,0.0-4.0-1.7,7663,"[""Case17_Stim.mp4""]",0,"""","""","""","""","""","2021-12-12 20:01:46",120.230.116.95,"Mozilla/5.0 (iPad; CPU OS 15_1 like Mac OS X) AppleWebKit/605.1.15 (KHTML, like Gecko) Mobile/15E148 MicroMessenger/8.0.15(0x18000f2e) NetType/WIFI Language/zh_CN",iPad,Mozilla,,iOS,15_1,aa87705f22fdd126fa9d2c94f9500ee9
15,1,"""","""","""","""","""",video-button-response,54,411242,0.0-4.0-2.7,null,"[""Case17_Stim.mp4""]",null,"""","""","""","""","""","2021-12-12 20:01:46",120.230.116.95,"Mozilla/5.0 (iPad; CPU OS 15_1 like Mac OS X) AppleWebKit/605.1.15 (KHTML, like Gecko) Mobile/15E148 MicroMessenger/8.0.15(0x18000f2e) NetType/WIFI Language/zh_CN",iPad,Mozilla,,iOS,15_1,aa87705f22fdd126fa9d2c94f9500ee9
15,1,"""","""","""","""","""",html-slider-response,55,414549,0.0-4.0-3.7,"""","""","""","<p>Is <span style='color:green; font-weight: bold' >ball A</span> a cause of <b>ball E</b> going through the <span style='color:red; font-weight: bold' >goal</span>?</p>",Case17_Stim.mp4,94,"""","""","2021-12-12 20:01:46",120.230.116.95,"Mozilla/5.0 (iPad; CPU OS 15_1 like Mac OS X) AppleWebKit/605.1.15 (KHTML, like Gecko) Mobile/15E148 MicroMessenger/8.0.15(0x18000f2e) NetType/WIFI Language/zh_CN",iPad,Mozilla,,iOS,15_1,aa87705f22fdd126fa9d2c94f9500ee9
15,1,"""","""","""","""","""",html-button-response,56,416229,0.0-4.0-0.8,1673,"<div style=""max-width:1000px;""><img><img src=""Case4.png"" width=""500"" height=""375""></img><p>Is <span style='color:green; font-weight: bold' >ball A</span> a cause of <b>ball E</b> going through the <span style='color:red; font-weight: bold' >goal</span>?</p><br /><br /></div>",0,"""","""","""","""","""","2021-12-12 20:01:46",120.230.116.95,"Mozilla/5.0 (iPad; CPU OS 15_1 like Mac OS X) AppleWebKit/605.1.15 (KHTML, like Gecko) Mobile/15E148 MicroMessenger/8.0.15(0x18000f2e) NetType/WIFI Language/zh_CN",iPad,Mozilla,,iOS,15_1,aa87705f22fdd126fa9d2c94f9500ee9
15,1,"""","""","""","""","""",video-button-response,57,424513,0.0-4.0-1.8,8281,"[""Case4_Stim.mp4""]",0,"""","""","""","""","""","2021-12-12 20:01:46",120.230.116.95,"Mozilla/5.0 (iPad; CPU OS 15_1 like Mac OS X) AppleWebKit/605.1.15 (KHTML, like Gecko) Mobile/15E148 MicroMessenger/8.0.15(0x18000f2e) NetType/WIFI Language/zh_CN",iPad,Mozilla,,iOS,15_1,aa87705f22fdd126fa9d2c94f9500ee9
15,1,"""","""","""","""","""",video-button-response,58,430745,0.0-4.0-2.8,null,"[""Case4_Stim.mp4""]",null,"""","""","""","""","""","2021-12-12 20:01:46",120.230.116.95,"Mozilla/5.0 (iPad; CPU OS 15_1 like Mac OS X) AppleWebKit/605.1.15 (KHTML, like Gecko) Mobile/15E148 MicroMessenger/8.0.15(0x18000f2e) NetType/WIFI Language/zh_CN",iPad,Mozilla,,iOS,15_1,aa87705f22fdd126fa9d2c94f9500ee9
15,1,"""","""","""","""","""",html-slider-response,59,433183,0.0-4.0-3.8,"""","""","""","<p>Is <span style='color:green; font-weight: bold' >ball A</span> a cause of <b>ball E</b> going through the <span style='color:red; font-weight: bold' >goal</span>?</p>",Case4_Stim.mp4,97,"""","""","2021-12-12 20:01:46",120.230.116.95,"Mozilla/5.0 (iPad; CPU OS 15_1 like Mac OS X) AppleWebKit/605.1.15 (KHTML, like Gecko) Mobile/15E148 MicroMessenger/8.0.15(0x18000f2e) NetType/WIFI Language/zh_CN",iPad,Mozilla,,iOS,15_1,aa87705f22fdd126fa9d2c94f9500ee9
15,1,"""","""","""","""","""",html-button-response,60,436348,0.0-4.0-0.9,3160,"<div style=""max-width:1000px;""><img><img src=""Case3.png"" width=""500"" height=""375""></img><p>Is <span style='color:green; font-weight: bold' >ball A</span> a cause of <b>ball E</b> going through the <span style='color:red; font-weight: bold' >goal</span>?</p><br /><br /></div>",0,"""","""","""","""","""","2021-12-12 20:01:46",120.230.116.95,"Mozilla/5.0 (iPad; CPU OS 15_1 like Mac OS X) AppleWebKit/605.1.15 (KHTML, like Gecko) Mobile/15E148 MicroMessenger/8.0.15(0x18000f2e) NetType/WIFI Language/zh_CN",iPad,Mozilla,,iOS,15_1,aa87705f22fdd126fa9d2c94f9500ee9
15,1,"""","""","""","""","""",video-button-response,61,443749,0.0-4.0-1.9,7396.999999999942,"[""Case3_Stim.mp4""]",0,"""","""","""","""","""","2021-12-12 20:01:46",120.230.116.95,"Mozilla/5.0 (iPad; CPU OS 15_1 like Mac OS X) AppleWebKit/605.1.15 (KHTML, like Gecko) Mobile/15E148 MicroMessenger/8.0.15(0x18000f2e) NetType/WIFI Language/zh_CN",iPad,Mozilla,,iOS,15_1,aa87705f22fdd126fa9d2c94f9500ee9
15,1,"""","""","""","""","""",video-button-response,62,449986,0.0-4.0-2.9,null,"[""Case3_Stim.mp4""]",null,"""","""","""","""","""","2021-12-12 20:01:46",120.230.116.95,"Mozilla/5.0 (iPad; CPU OS 15_1 like Mac OS X) AppleWebKit/605.1.15 (KHTML, like Gecko) Mobile/15E148 MicroMessenger/8.0.15(0x18000f2e) NetType/WIFI Language/zh_CN",iPad,Mozilla,,iOS,15_1,aa87705f22fdd126fa9d2c94f9500ee9
15,1,"""","""","""","""","""",html-slider-response,63,456588,0.0-4.0-3.9,"""","""","""","<p>Is <span style='color:green; font-weight: bold' >ball A</span> a cause of <b>ball E</b> going through the <span style='color:red; font-weight: bold' >goal</span>?</p>",Case3_Stim.mp4,97,"""","""","2021-12-12 20:01:46",120.230.116.95,"Mozilla/5.0 (iPad; CPU OS 15_1 like Mac OS X) AppleWebKit/605.1.15 (KHTML, like Gecko) Mobile/15E148 MicroMessenger/8.0.15(0x18000f2e) NetType/WIFI Language/zh_CN",iPad,Mozilla,,iOS,15_1,aa87705f22fdd126fa9d2c94f9500ee9
15,1,"""","""","""","""","""",html-button-response,64,458567,0.0-4.0-0.10,1975.0000000000582,"<div style=""max-width:1000px;""><img><img src=""Case14.png"" width=""500"" height=""375""></img><p>Is <span style='color:green; font-weight: bold' >ball A</span> a cause of <b>ball E</b> going through the <span style='color:red; font-weight: bold' >goal</span>?</p><br /><br /></div>",0,"""","""","""","""","""","2021-12-12 20:01:46",120.230.116.95,"Mozilla/5.0 (iPad; CPU OS 15_1 like Mac OS X) AppleWebKit/605.1.15 (KHTML, like Gecko) Mobile/15E148 MicroMessenger/8.0.15(0x18000f2e) NetType/WIFI Language/zh_CN",iPad,Mozilla,,iOS,15_1,aa87705f22fdd126fa9d2c94f9500ee9
15,1,"""","""","""","""","""",video-button-response,65,465751,0.0-4.0-1.10,7182,"[""Case14_Stim.mp4""]",0,"""","""","""","""","""","2021-12-12 20:01:46",120.230.116.95,"Mozilla/5.0 (iPad; CPU OS 15_1 like Mac OS X) AppleWebKit/605.1.15 (KHTML, like Gecko) Mobile/15E148 MicroMessenger/8.0.15(0x18000f2e) NetType/WIFI Language/zh_CN",iPad,Mozilla,,iOS,15_1,aa87705f22fdd126fa9d2c94f9500ee9
15,1,"""","""","""","""","""",video-button-response,66,471987,0.0-4.0-2.10,null,"[""Case14_Stim.mp4""]",null,"""","""","""","""","""","2021-12-12 20:01:46",120.230.116.95,"Mozilla/5.0 (iPad; CPU OS 15_1 like Mac OS X) AppleWebKit/605.1.15 (KHTML, like Gecko) Mobile/15E148 MicroMessenger/8.0.15(0x18000f2e) NetType/WIFI Language/zh_CN",iPad,Mozilla,,iOS,15_1,aa87705f22fdd126fa9d2c94f9500ee9
15,1,"""","""","""","""","""",html-slider-response,67,474288,0.0-4.0-3.10,"""","""","""","<p>Is <span style='color:green; font-weight: bold' >ball A</span> a cause of <b>ball E</b> going through the <span style='color:red; font-weight: bold' >goal</span>?</p>",Case14_Stim.mp4,70,"""","""","2021-12-12 20:01:46",120.230.116.95,"Mozilla/5.0 (iPad; CPU OS 15_1 like Mac OS X) AppleWebKit/605.1.15 (KHTML, like Gecko) Mobile/15E148 MicroMessenger/8.0.15(0x18000f2e) NetType/WIFI Language/zh_CN",iPad,Mozilla,,iOS,15_1,aa87705f22fdd126fa9d2c94f9500ee9
15,1,"""","""","""","""","""",html-button-response,68,479020,0.0-4.0-0.11,4725.000000000058,"<div style=""max-width:1000px;""><img><img src=""Case0.png"" width=""500"" height=""375""></img><p>Is <span style='color:green; font-weight: bold' >ball A</span> a cause of <b>ball E</b> going through the <span style='color:red; font-weight: bold' >goal</span>?</p><br /><br /></div>",0,"""","""","""","""","""","2021-12-12 20:01:46",120.230.116.95,"Mozilla/5.0 (iPad; CPU OS 15_1 like Mac OS X) AppleWebKit/605.1.15 (KHTML, like Gecko) Mobile/15E148 MicroMessenger/8.0.15(0x18000f2e) NetType/WIFI Language/zh_CN",iPad,Mozilla,,iOS,15_1,aa87705f22fdd126fa9d2c94f9500ee9
15,1,"""","""","""","""","""",video-button-response,69,486572,0.0-4.0-1.11,7549,"[""Case0_Stim.mp4""]",0,"""","""","""","""","""","2021-12-12 20:01:46",120.230.116.95,"Mozilla/5.0 (iPad; CPU OS 15_1 like Mac OS X) AppleWebKit/605.1.15 (KHTML, like Gecko) Mobile/15E148 MicroMessenger/8.0.15(0x18000f2e) NetType/WIFI Language/zh_CN",iPad,Mozilla,,iOS,15_1,aa87705f22fdd126fa9d2c94f9500ee9
15,1,"""","""","""","""","""",video-button-response,70,492805,0.0-4.0-2.11,null,"[""Case0_Stim.mp4""]",null,"""","""","""","""","""","2021-12-12 20:01:46",120.230.116.95,"Mozilla/5.0 (iPad; CPU OS 15_1 like Mac OS X) AppleWebKit/605.1.15 (KHTML, like Gecko) Mobile/15E148 MicroMessenger/8.0.15(0x18000f2e) NetType/WIFI Language/zh_CN",iPad,Mozilla,,iOS,15_1,aa87705f22fdd126fa9d2c94f9500ee9
15,1,"""","""","""","""","""",html-slider-response,71,494503,0.0-4.0-3.11,"""","""","""","<p>Is <span style='color:green; font-weight: bold' >ball A</span> a cause of <b>ball E</b> going through the <span style='color:red; font-weight: bold' >goal</span>?</p>",Case0_Stim.mp4,51,"""","""","2021-12-12 20:01:46",120.230.116.95,"Mozilla/5.0 (iPad; CPU OS 15_1 like Mac OS X) AppleWebKit/605.1.15 (KHTML, like Gecko) Mobile/15E148 MicroMessenger/8.0.15(0x18000f2e) NetType/WIFI Language/zh_CN",iPad,Mozilla,,iOS,15_1,aa87705f22fdd126fa9d2c94f9500ee9
15,1,"""","""","""","""","""",html-button-response,72,497756,0.0-4.0-0.12,3248,"<div style=""max-width:1000px;""><img><img src=""Case6.png"" width=""500"" height=""375""></img><p>Is <span style='color:green; font-weight: bold' >ball A</span> a cause of <b>ball E</b> going through the <span style='color:red; font-weight: bold' >goal</span>?</p><br /><br /></div>",0,"""","""","""","""","""","2021-12-12 20:01:46",120.230.116.95,"Mozilla/5.0 (iPad; CPU OS 15_1 like Mac OS X) AppleWebKit/605.1.15 (KHTML, like Gecko) Mobile/15E148 MicroMessenger/8.0.15(0x18000f2e) NetType/WIFI Language/zh_CN",iPad,Mozilla,,iOS,15_1,aa87705f22fdd126fa9d2c94f9500ee9
15,1,"""","""","""","""","""",video-button-response,73,504440,0.0-4.0-1.12,6680.999999999942,"[""Case6_Stim.mp4""]",0,"""","""","""","""","""","2021-12-12 20:01:46",120.230.116.95,"Mozilla/5.0 (iPad; CPU OS 15_1 like Mac OS X) AppleWebKit/605.1.15 (KHTML, like Gecko) Mobile/15E148 MicroMessenger/8.0.15(0x18000f2e) NetType/WIFI Language/zh_CN",iPad,Mozilla,,iOS,15_1,aa87705f22fdd126fa9d2c94f9500ee9
15,1,"""","""","""","""","""",video-button-response,74,510673,0.0-4.0-2.12,null,"[""Case6_Stim.mp4""]",null,"""","""","""","""","""","2021-12-12 20:01:46",120.230.116.95,"Mozilla/5.0 (iPad; CPU OS 15_1 like Mac OS X) AppleWebKit/605.1.15 (KHTML, like Gecko) Mobile/15E148 MicroMessenger/8.0.15(0x18000f2e) NetType/WIFI Language/zh_CN",iPad,Mozilla,,iOS,15_1,aa87705f22fdd126fa9d2c94f9500ee9
15,1,"""","""","""","""","""",html-slider-response,75,512626,0.0-4.0-3.12,"""","""","""","<p>Is <span style='color:green; font-weight: bold' >ball A</span> a cause of <b>ball E</b> going through the <span style='color:red; font-weight: bold' >goal</span>?</p>",Case6_Stim.mp4,50,"""","""","2021-12-12 20:01:46",120.230.116.95,"Mozilla/5.0 (iPad; CPU OS 15_1 like Mac OS X) AppleWebKit/605.1.15 (KHTML, like Gecko) Mobile/15E148 MicroMessenger/8.0.15(0x18000f2e) NetType/WIFI Language/zh_CN",iPad,Mozilla,,iOS,15_1,aa87705f22fdd126fa9d2c94f9500ee9
15,1,"""","""","""","""","""",html-button-response,76,518025,0.0-4.0-0.13,5393.000000000058,"<div style=""max-width:1000px;""><img><img src=""Case8.png"" width=""500"" height=""375""></img><p>Is <span style='color:green; font-weight: bold' >ball A</span> a cause of <b>ball E</b> going through the <span style='color:red; font-weight: bold' >goal</span>?</p><br /><br /></div>",0,"""","""","""","""","""","2021-12-12 20:01:46",120.230.116.95,"Mozilla/5.0 (iPad; CPU OS 15_1 like Mac OS X) AppleWebKit/605.1.15 (KHTML, like Gecko) Mobile/15E148 MicroMessenger/8.0.15(0x18000f2e) NetType/WIFI Language/zh_CN",iPad,Mozilla,,iOS,15_1,aa87705f22fdd126fa9d2c94f9500ee9
15,1,"""","""","""","""","""",video-button-response,77,526948,0.0-4.0-1.13,8920.999999999942,"[""Case8_Stim.mp4""]",0,"""","""","""","""","""","2021-12-12 20:01:46",120.230.116.95,"Mozilla/5.0 (iPad; CPU OS 15_1 like Mac OS X) AppleWebKit/605.1.15 (KHTML, like Gecko) Mobile/15E148 MicroMessenger/8.0.15(0x18000f2e) NetType/WIFI Language/zh_CN",iPad,Mozilla,,iOS,15_1,aa87705f22fdd126fa9d2c94f9500ee9
15,1,"""","""","""","""","""",video-button-response,78,533179,0.0-4.0-2.13,null,"[""Case8_Stim.mp4""]",null,"""","""","""","""","""","2021-12-12 20:01:46",120.230.116.95,"Mozilla/5.0 (iPad; CPU OS 15_1 like Mac OS X) AppleWebKit/605.1.15 (KHTML, like Gecko) Mobile/15E148 MicroMessenger/8.0.15(0x18000f2e) NetType/WIFI Language/zh_CN",iPad,Mozilla,,iOS,15_1,aa87705f22fdd126fa9d2c94f9500ee9
15,1,"""","""","""","""","""",html-slider-response,79,538647,0.0-4.0-3.13,"""","""","""","<p>Is <span style='color:green; font-weight: bold' >ball A</span> a cause of <b>ball E</b> going through the <span style='color:red; font-weight: bold' >goal</span>?</p>",Case8_Stim.mp4,50,"""","""","2021-12-12 20:01:46",120.230.116.95,"Mozilla/5.0 (iPad; CPU OS 15_1 like Mac OS X) AppleWebKit/605.1.15 (KHTML, like Gecko) Mobile/15E148 MicroMessenger/8.0.15(0x18000f2e) NetType/WIFI Language/zh_CN",iPad,Mozilla,,iOS,15_1,aa87705f22fdd126fa9d2c94f9500ee9
15,1,"""","""","""","""","""",html-button-response,80,540277,0.0-4.0-0.14,1625,"<div style=""max-width:1000px;""><img><img src=""Case13.png"" width=""500"" height=""375""></img><p>Is <span style='color:green; font-weight: bold' >ball A</span> a cause of <b>ball E</b> going through the <span style='color:red; font-weight: bold' >goal</span>?</p><br /><br /></div>",0,"""","""","""","""","""","2021-12-12 20:01:46",120.230.116.95,"Mozilla/5.0 (iPad; CPU OS 15_1 like Mac OS X) AppleWebKit/605.1.15 (KHTML, like Gecko) Mobile/15E148 MicroMessenger/8.0.15(0x18000f2e) NetType/WIFI Language/zh_CN",iPad,Mozilla,,iOS,15_1,aa87705f22fdd126fa9d2c94f9500ee9
15,1,"""","""","""","""","""",video-button-response,81,548878,0.0-4.0-1.14,8599.000000000116,"[""Case13_Stim.mp4""]",0,"""","""","""","""","""","2021-12-12 20:01:46",120.230.116.95,"Mozilla/5.0 (iPad; CPU OS 15_1 like Mac OS X) AppleWebKit/605.1.15 (KHTML, like Gecko) Mobile/15E148 MicroMessenger/8.0.15(0x18000f2e) NetType/WIFI Language/zh_CN",iPad,Mozilla,,iOS,15_1,aa87705f22fdd126fa9d2c94f9500ee9
15,1,"""","""","""","""","""",video-button-response,82,555115,0.0-4.0-2.14,null,"[""Case13_Stim.mp4""]",null,"""","""","""","""","""","2021-12-12 20:01:46",120.230.116.95,"Mozilla/5.0 (iPad; CPU OS 15_1 like Mac OS X) AppleWebKit/605.1.15 (KHTML, like Gecko) Mobile/15E148 MicroMessenger/8.0.15(0x18000f2e) NetType/WIFI Language/zh_CN",iPad,Mozilla,,iOS,15_1,aa87705f22fdd126fa9d2c94f9500ee9
15,1,"""","""","""","""","""",html-slider-response,83,557564,0.0-4.0-3.14,"""","""","""","<p>Is <span style='color:green; font-weight: bold' >ball A</span> a cause of <b>ball E</b> going through the <span style='color:red; font-weight: bold' >goal</span>?</p>",Case13_Stim.mp4,97,"""","""","2021-12-12 20:01:46",120.230.116.95,"Mozilla/5.0 (iPad; CPU OS 15_1 like Mac OS X) AppleWebKit/605.1.15 (KHTML, like Gecko) Mobile/15E148 MicroMessenger/8.0.15(0x18000f2e) NetType/WIFI Language/zh_CN",iPad,Mozilla,,iOS,15_1,aa87705f22fdd126fa9d2c94f9500ee9
15,1,"""","""","""","""","""",html-button-response,84,558814,0.0-4.0-0.15,1243,"<div style=""max-width:1000px;""><img><img src=""Case11.png"" width=""500"" height=""375""></img><p>Is <span style='color:green; font-weight: bold' >ball A</span> a cause of <b>ball E</b> going through the <span style='color:red; font-weight: bold' >goal</span>?</p><br /><br /></div>",0,"""","""","""","""","""","2021-12-12 20:01:46",120.230.116.95,"Mozilla/5.0 (iPad; CPU OS 15_1 like Mac OS X) AppleWebKit/605.1.15 (KHTML, like Gecko) Mobile/15E148 MicroMessenger/8.0.15(0x18000f2e) NetType/WIFI Language/zh_CN",iPad,Mozilla,,iOS,15_1,aa87705f22fdd126fa9d2c94f9500ee9
15,1,"""","""","""","""","""",video-button-response,85,567497,0.0-4.0-1.15,8680,"[""Case11_Stim.mp4""]",0,"""","""","""","""","""","2021-12-12 20:01:46",120.230.116.95,"Mozilla/5.0 (iPad; CPU OS 15_1 like Mac OS X) AppleWebKit/605.1.15 (KHTML, like Gecko) Mobile/15E148 MicroMessenger/8.0.15(0x18000f2e) NetType/WIFI Language/zh_CN",iPad,Mozilla,,iOS,15_1,aa87705f22fdd126fa9d2c94f9500ee9
15,1,"""","""","""","""","""",video-button-response,86,573737,0.0-4.0-2.15,null,"[""Case11_Stim.mp4""]",null,"""","""","""","""","""","2021-12-12 20:01:46",120.230.116.95,"Mozilla/5.0 (iPad; CPU OS 15_1 like Mac OS X) AppleWebKit/605.1.15 (KHTML, like Gecko) Mobile/15E148 MicroMessenger/8.0.15(0x18000f2e) NetType/WIFI Language/zh_CN",iPad,Mozilla,,iOS,15_1,aa87705f22fdd126fa9d2c94f9500ee9
15,1,"""","""","""","""","""",html-slider-response,87,576284,0.0-4.0-3.15,"""","""","""","<p>Is <span style='color:green; font-weight: bold' >ball A</span> a cause of <b>ball E</b> going through the <span style='color:red; font-weight: bold' >goal</span>?</p>",Case11_Stim.mp4,3,"""","""","2021-12-12 20:01:46",120.230.116.95,"Mozilla/5.0 (iPad; CPU OS 15_1 like Mac OS X) AppleWebKit/605.1.15 (KHTML, like Gecko) Mobile/15E148 MicroMessenger/8.0.15(0x18000f2e) NetType/WIFI Language/zh_CN",iPad,Mozilla,,iOS,15_1,aa87705f22fdd126fa9d2c94f9500ee9
15,1,"""","""","""","""","""",html-button-response,88,577851,0.0-4.0-0.16,1561,"<div style=""max-width:1000px;""><img><img src=""Case5.png"" width=""500"" height=""375""></img><p>Is <span style='color:green; font-weight: bold' >ball A</span> a cause of <b>ball E</b> going through the <span style='color:red; font-weight: bold' >goal</span>?</p><br /><br /></div>",0,"""","""","""","""","""","2021-12-12 20:01:46",120.230.116.95,"Mozilla/5.0 (iPad; CPU OS 15_1 like Mac OS X) AppleWebKit/605.1.15 (KHTML, like Gecko) Mobile/15E148 MicroMessenger/8.0.15(0x18000f2e) NetType/WIFI Language/zh_CN",iPad,Mozilla,,iOS,15_1,aa87705f22fdd126fa9d2c94f9500ee9
15,1,"""","""","""","""","""",video-button-response,89,584864,0.0-4.0-1.16,7010,"[""Case5_Stim.mp4""]",0,"""","""","""","""","""","2021-12-12 20:01:46",120.230.116.95,"Mozilla/5.0 (iPad; CPU OS 15_1 like Mac OS X) AppleWebKit/605.1.15 (KHTML, like Gecko) Mobile/15E148 MicroMessenger/8.0.15(0x18000f2e) NetType/WIFI Language/zh_CN",iPad,Mozilla,,iOS,15_1,aa87705f22fdd126fa9d2c94f9500ee9
15,1,"""","""","""","""","""",video-button-response,90,591096,0.0-4.0-2.16,null,"[""Case5_Stim.mp4""]",null,"""","""","""","""","""","2021-12-12 20:01:46",120.230.116.95,"Mozilla/5.0 (iPad; CPU OS 15_1 like Mac OS X) AppleWebKit/605.1.15 (KHTML, like Gecko) Mobile/15E148 MicroMessenger/8.0.15(0x18000f2e) NetType/WIFI Language/zh_CN",iPad,Mozilla,,iOS,15_1,aa87705f22fdd126fa9d2c94f9500ee9
15,1,"""","""","""","""","""",html-slider-response,91,594735,0.0-4.0-3.16,"""","""","""","<p>Is <span style='color:green; font-weight: bold' >ball A</span> a cause of <b>ball E</b> going through the <span style='color:red; font-weight: bold' >goal</span>?</p>",Case5_Stim.mp4,80,"""","""","2021-12-12 20:01:46",120.230.116.95,"Mozilla/5.0 (iPad; CPU OS 15_1 like Mac OS X) AppleWebKit/605.1.15 (KHTML, like Gecko) Mobile/15E148 MicroMessenger/8.0.15(0x18000f2e) NetType/WIFI Language/zh_CN",iPad,Mozilla,,iOS,15_1,aa87705f22fdd126fa9d2c94f9500ee9
15,1,"""","""","""","""","""",html-button-response,92,596302,0.0-4.0-0.17,1561,"<div style=""max-width:1000px;""><img><img src=""Case15.png"" width=""500"" height=""375""></img><p>Is <span style='color:green; font-weight: bold' >ball A</span> a cause of <b>ball E</b> going through the <span style='color:red; font-weight: bold' >goal</span>?</p><br /><br /></div>",0,"""","""","""","""","""","2021-12-12 20:01:46",120.230.116.95,"Mozilla/5.0 (iPad; CPU OS 15_1 like Mac OS X) AppleWebKit/605.1.15 (KHTML, like Gecko) Mobile/15E148 MicroMessenger/8.0.15(0x18000f2e) NetType/WIFI Language/zh_CN",iPad,Mozilla,,iOS,15_1,aa87705f22fdd126fa9d2c94f9500ee9
15,1,"""","""","""","""","""",video-button-response,93,604419,0.0-4.0-1.17,8114,"[""Case15_Stim.mp4""]",0,"""","""","""","""","""","2021-12-12 20:01:46",120.230.116.95,"Mozilla/5.0 (iPad; CPU OS 15_1 like Mac OS X) AppleWebKit/605.1.15 (KHTML, like Gecko) Mobile/15E148 MicroMessenger/8.0.15(0x18000f2e) NetType/WIFI Language/zh_CN",iPad,Mozilla,,iOS,15_1,aa87705f22fdd126fa9d2c94f9500ee9
15,1,"""","""","""","""","""",video-button-response,94,610655,0.0-4.0-2.17,null,"[""Case15_Stim.mp4""]",null,"""","""","""","""","""","2021-12-12 20:01:46",120.230.116.95,"Mozilla/5.0 (iPad; CPU OS 15_1 like Mac OS X) AppleWebKit/605.1.15 (KHTML, like Gecko) Mobile/15E148 MicroMessenger/8.0.15(0x18000f2e) NetType/WIFI Language/zh_CN",iPad,Mozilla,,iOS,15_1,aa87705f22fdd126fa9d2c94f9500ee9
15,1,"""","""","""","""","""",html-slider-response,95,616573,0.0-4.0-3.17,"""","""","""","<p>Is <span style='color:green; font-weight: bold' >ball A</span> a cause of <b>ball E</b> going through the <span style='color:red; font-weight: bold' >goal</span>?</p>",Case15_Stim.mp4,98,"""","""","2021-12-12 20:01:46",120.230.116.95,"Mozilla/5.0 (iPad; CPU OS 15_1 like Mac OS X) AppleWebKit/605.1.15 (KHTML, like Gecko) Mobile/15E148 MicroMessenger/8.0.15(0x18000f2e) NetType/WIFI Language/zh_CN",iPad,Mozilla,,iOS,15_1,aa87705f22fdd126fa9d2c94f9500ee9
15,1,"""","""","""","""","""",video-button-response,96,943774,0.0-5.0,327188,"[""5_minute_break.mp4""]",0,"""","""","""","""","""","2021-12-12 20:01:46",120.230.116.95,"Mozilla/5.0 (iPad; CPU OS 15_1 like Mac OS X) AppleWebKit/605.1.15 (KHTML, like Gecko) Mobile/15E148 MicroMessenger/8.0.15(0x18000f2e) NetType/WIFI Language/zh_CN",iPad,Mozilla,,iOS,15_1,aa87705f22fdd126fa9d2c94f9500ee9
15,1,"""","""","""","""","""",html-button-response,97,946980,0.0-6.0,3197.9999999998836,"<div style=""max-width:1000px;""><br /><br /><br /><br /><br /><p> In this part of the experiment, you will first answer the following question after watching the videos twice:</p><p>If <span style='color:green; font-weight: bold' >ball A</span> had been removed, how likely would <b>ball E</b> have gone through the <span style='color:red; font-weight: bold' >goal</span>?</p><br /><p> You will then watch the video one more time and answer the question:<p><p>Is <span style='color:green; font-weight: bold' >ball A</span> a cause of <b>ball E</b> going through the <span style='color:red; font-weight: bold' >goal</span>?</p><br /><br /></div>",0,"""","""","""","""","""","2021-12-12 20:01:46",120.230.116.95,"Mozilla/5.0 (iPad; CPU OS 15_1 like Mac OS X) AppleWebKit/605.1.15 (KHTML, like Gecko) Mobile/15E148 MicroMessenger/8.0.15(0x18000f2e) NetType/WIFI Language/zh_CN",iPad,Mozilla,,iOS,15_1,aa87705f22fdd126fa9d2c94f9500ee9
15,1,"""","""","""","""","""",html-button-response,98,954477,0.0-7.0-0.0,7492,"<div style=""max-width:1000px;""><img><img src=""Case2v.png"" width=""500"" height=""375""></img><p>If <span style='color:green; font-weight: bold' >ball A</span> had been removed, how likely would <b>ball E</b> have gone through the <span style='color:red; font-weight: bold' >goal</span>?</p><br /><br /></div>",0,"""","""","""","""","""","2021-12-12 20:01:46",120.230.116.95,"Mozilla/5.0 (iPad; CPU OS 15_1 like Mac OS X) AppleWebKit/605.1.15 (KHTML, like Gecko) Mobile/15E148 MicroMessenger/8.0.15(0x18000f2e) NetType/WIFI Language/zh_CN",iPad,Mozilla,,iOS,15_1,aa87705f22fdd126fa9d2c94f9500ee9
15,1,"""","""","""","""","""",video-button-response,99,963011,0.0-7.0-1.0,8531,"[""Case2v_Stim.mp4""]",0,"""","""","""","""","""","2021-12-12 20:01:46",120.230.116.95,"Mozilla/5.0 (iPad; CPU OS 15_1 like Mac OS X) AppleWebKit/605.1.15 (KHTML, like Gecko) Mobile/15E148 MicroMessenger/8.0.15(0x18000f2e) NetType/WIFI Language/zh_CN",iPad,Mozilla,,iOS,15_1,aa87705f22fdd126fa9d2c94f9500ee9
15,1,"""","""","""","""","""",video-button-response,100,969253,0.0-7.0-2.0,null,"[""Case2v_Stim.mp4""]",null,"""","""","""","""","""","2021-12-12 20:01:46",120.230.116.95,"Mozilla/5.0 (iPad; CPU OS 15_1 like Mac OS X) AppleWebKit/605.1.15 (KHTML, like Gecko) Mobile/15E148 MicroMessenger/8.0.15(0x18000f2e) NetType/WIFI Language/zh_CN",iPad,Mozilla,,iOS,15_1,aa87705f22fdd126fa9d2c94f9500ee9
15,1,"""","""","""","""","""",html-slider-response,101,974664,0.0-7.0-3.0,"""","""","""","<p>If <span style='color:green; font-weight: bold' >ball A</span> had been removed, how likely would <b>ball E</b> have gone through the <span style='color:red; font-weight: bold' >goal</span>?</p>",Case2v_Stim.mp4,2,"""","""","2021-12-12 20:01:46",120.230.116.95,"Mozilla/5.0 (iPad; CPU OS 15_1 like Mac OS X) AppleWebKit/605.1.15 (KHTML, like Gecko) Mobile/15E148 MicroMessenger/8.0.15(0x18000f2e) NetType/WIFI Language/zh_CN",iPad,Mozilla,,iOS,15_1,aa87705f22fdd126fa9d2c94f9500ee9
15,1,"""","""","""","""","""",html-button-response,102,976763,0.0-7.0-4.0,2092,"<div style=""max-width:1000px;""><img><img src=""Case2v.png"" width=""500"" height=""375""></img><p> Now watch the video one more time and answer:</p><p>Is <span style='color:green; font-weight: bold' >ball A</span> a cause of <b>ball E</b> going through the <span style='color:red; font-weight: bold' >goal</span>?</p><br /><br /></div>",0,"""","""","""","""","""","2021-12-12 20:01:46",120.230.116.95,"Mozilla/5.0 (iPad; CPU OS 15_1 like Mac OS X) AppleWebKit/605.1.15 (KHTML, like Gecko) Mobile/15E148 MicroMessenger/8.0.15(0x18000f2e) NetType/WIFI Language/zh_CN",iPad,Mozilla,,iOS,15_1,aa87705f22fdd126fa9d2c94f9500ee9
15,1,"""","""","""","""","""",video-button-response,103,983006,0.0-7.0-5.0,null,"[""Case2v_Stim.mp4""]",null,"""","""","""","""","""","2021-12-12 20:01:46",120.230.116.95,"Mozilla/5.0 (iPad; CPU OS 15_1 like Mac OS X) AppleWebKit/605.1.15 (KHTML, like Gecko) Mobile/15E148 MicroMessenger/8.0.15(0x18000f2e) NetType/WIFI Language/zh_CN",iPad,Mozilla,,iOS,15_1,aa87705f22fdd126fa9d2c94f9500ee9
15,1,"""","""","""","""","""",html-slider-response,104,989234,0.0-7.0-6.0,"""","""","""","<p>Is <span style='color:green; font-weight: bold' >ball A</span> a cause of <b>ball E</b> going through the <span style='color:red; font-weight: bold' >goal</span>?</p>",Case2v_Stim.mp4,99,"""","""","2021-12-12 20:01:46",120.230.116.95,"Mozilla/5.0 (iPad; CPU OS 15_1 like Mac OS X) AppleWebKit/605.1.15 (KHTML, like Gecko) Mobile/15E148 MicroMessenger/8.0.15(0x18000f2e) NetType/WIFI Language/zh_CN",iPad,Mozilla,,iOS,15_1,aa87705f22fdd126fa9d2c94f9500ee9
15,1,"""","""","""","""","""",html-button-response,105,990733,0.0-7.0-0.1,1497,"<div style=""max-width:1000px;""><img><img src=""Case6v.png"" width=""500"" height=""375""></img><p>If <span style='color:green; font-weight: bold' >ball A</span> had been removed, how likely would <b>ball E</b> have gone through the <span style='color:red; font-weight: bold' >goal</span>?</p><br /><br /></div>",0,"""","""","""","""","""","2021-12-12 20:01:46",120.230.116.95,"Mozilla/5.0 (iPad; CPU OS 15_1 like Mac OS X) AppleWebKit/605.1.15 (KHTML, like Gecko) Mobile/15E148 MicroMessenger/8.0.15(0x18000f2e) NetType/WIFI Language/zh_CN",iPad,Mozilla,,iOS,15_1,aa87705f22fdd126fa9d2c94f9500ee9
15,1,"""","""","""","""","""",video-button-response,106,997817,0.0-7.0-1.1,7078.000000000116,"[""Case6v_Stim.mp4""]",0,"""","""","""","""","""","2021-12-12 20:01:46",120.230.116.95,"Mozilla/5.0 (iPad; CPU OS 15_1 like Mac OS X) AppleWebKit/605.1.15 (KHTML, like Gecko) Mobile/15E148 MicroMessenger/8.0.15(0x18000f2e) NetType/WIFI Language/zh_CN",iPad,Mozilla,,iOS,15_1,aa87705f22fdd126fa9d2c94f9500ee9
15,1,"""","""","""","""","""",video-button-response,107,1004047,0.0-7.0-2.1,null,"[""Case6v_Stim.mp4""]",null,"""","""","""","""","""","2021-12-12 20:01:46",120.230.116.95,"Mozilla/5.0 (iPad; CPU OS 15_1 like Mac OS X) AppleWebKit/605.1.15 (KHTML, like Gecko) Mobile/15E148 MicroMessenger/8.0.15(0x18000f2e) NetType/WIFI Language/zh_CN",iPad,Mozilla,,iOS,15_1,aa87705f22fdd126fa9d2c94f9500ee9
15,1,"""","""","""","""","""",html-slider-response,108,1006520,0.0-7.0-3.1,"""","""","""","<p>If <span style='color:green; font-weight: bold' >ball A</span> had been removed, how likely would <b>ball E</b> have gone through the <span style='color:red; font-weight: bold' >goal</span>?</p>",Case6v_Stim.mp4,100,"""","""","2021-12-12 20:01:46",120.230.116.95,"Mozilla/5.0 (iPad; CPU OS 15_1 like Mac OS X) AppleWebKit/605.1.15 (KHTML, like Gecko) Mobile/15E148 MicroMessenger/8.0.15(0x18000f2e) NetType/WIFI Language/zh_CN",iPad,Mozilla,,iOS,15_1,aa87705f22fdd126fa9d2c94f9500ee9
15,1,"""","""","""","""","""",html-button-response,109,1010651,0.0-7.0-4.1,4128,"<div style=""max-width:1000px;""><img><img src=""Case6v.png"" width=""500"" height=""375""></img><p> Now watch the video one more time and answer:</p><p>Is <span style='color:green; font-weight: bold' >ball A</span> a cause of <b>ball E</b> going through the <span style='color:red; font-weight: bold' >goal</span>?</p><br /><br /></div>",0,"""","""","""","""","""","2021-12-12 20:01:46",120.230.116.95,"Mozilla/5.0 (iPad; CPU OS 15_1 like Mac OS X) AppleWebKit/605.1.15 (KHTML, like Gecko) Mobile/15E148 MicroMessenger/8.0.15(0x18000f2e) NetType/WIFI Language/zh_CN",iPad,Mozilla,,iOS,15_1,aa87705f22fdd126fa9d2c94f9500ee9
15,1,"""","""","""","""","""",video-button-response,110,1016887,0.0-7.0-5.1,null,"[""Case6v_Stim.mp4""]",null,"""","""","""","""","""","2021-12-12 20:01:46",120.230.116.95,"Mozilla/5.0 (iPad; CPU OS 15_1 like Mac OS X) AppleWebKit/605.1.15 (KHTML, like Gecko) Mobile/15E148 MicroMessenger/8.0.15(0x18000f2e) NetType/WIFI Language/zh_CN",iPad,Mozilla,,iOS,15_1,aa87705f22fdd126fa9d2c94f9500ee9
15,1,"""","""","""","""","""",html-slider-response,111,1040289,0.0-7.0-6.1,"""","""","""","<p>Is <span style='color:green; font-weight: bold' >ball A</span> a cause of <b>ball E</b> going through the <span style='color:red; font-weight: bold' >goal</span>?</p>",Case6v_Stim.mp4,50,"""","""","2021-12-12 20:01:46",120.230.116.95,"Mozilla/5.0 (iPad; CPU OS 15_1 like Mac OS X) AppleWebKit/605.1.15 (KHTML, like Gecko) Mobile/15E148 MicroMessenger/8.0.15(0x18000f2e) NetType/WIFI Language/zh_CN",iPad,Mozilla,,iOS,15_1,aa87705f22fdd126fa9d2c94f9500ee9
15,1,"""","""","""","""","""",html-button-response,112,1044756,0.0-7.0-0.2,4459,"<div style=""max-width:1000px;""><img><img src=""Case4v.png"" width=""500"" height=""375""></img><p>If <span style='color:green; font-weight: bold' >ball A</span> had been removed, how likely would <b>ball E</b> have gone through the <span style='color:red; font-weight: bold' >goal</span>?</p><br /><br /></div>",0,"""","""","""","""","""","2021-12-12 20:01:46",120.230.116.95,"Mozilla/5.0 (iPad; CPU OS 15_1 like Mac OS X) AppleWebKit/605.1.15 (KHTML, like Gecko) Mobile/15E148 MicroMessenger/8.0.15(0x18000f2e) NetType/WIFI Language/zh_CN",iPad,Mozilla,,iOS,15_1,aa87705f22fdd126fa9d2c94f9500ee9
15,1,"""","""","""","""","""",video-button-response,113,1055423,0.0-7.0-1.2,10664,"[""Case4v_Stim.mp4""]",0,"""","""","""","""","""","2021-12-12 20:01:46",120.230.116.95,"Mozilla/5.0 (iPad; CPU OS 15_1 like Mac OS X) AppleWebKit/605.1.15 (KHTML, like Gecko) Mobile/15E148 MicroMessenger/8.0.15(0x18000f2e) NetType/WIFI Language/zh_CN",iPad,Mozilla,,iOS,15_1,aa87705f22fdd126fa9d2c94f9500ee9
15,1,"""","""","""","""","""",video-button-response,114,1061664,0.0-7.0-2.2,null,"[""Case4v_Stim.mp4""]",null,"""","""","""","""","""","2021-12-12 20:01:46",120.230.116.95,"Mozilla/5.0 (iPad; CPU OS 15_1 like Mac OS X) AppleWebKit/605.1.15 (KHTML, like Gecko) Mobile/15E148 MicroMessenger/8.0.15(0x18000f2e) NetType/WIFI Language/zh_CN",iPad,Mozilla,,iOS,15_1,aa87705f22fdd126fa9d2c94f9500ee9
15,1,"""","""","""","""","""",html-slider-response,115,1068010,0.0-7.0-3.2,"""","""","""","<p>If <span style='color:green; font-weight: bold' >ball A</span> had been removed, how likely would <b>ball E</b> have gone through the <span style='color:red; font-weight: bold' >goal</span>?</p>",Case4v_Stim.mp4,4,"""","""","2021-12-12 20:01:46",120.230.116.95,"Mozilla/5.0 (iPad; CPU OS 15_1 like Mac OS X) AppleWebKit/605.1.15 (KHTML, like Gecko) Mobile/15E148 MicroMessenger/8.0.15(0x18000f2e) NetType/WIFI Language/zh_CN",iPad,Mozilla,,iOS,15_1,aa87705f22fdd126fa9d2c94f9500ee9
15,1,"""","""","""","""","""",html-button-response,116,1072542,0.0-7.0-4.2,4526,"<div style=""max-width:1000px;""><img><img src=""Case4v.png"" width=""500"" height=""375""></img><p> Now watch the video one more time and answer:</p><p>Is <span style='color:green; font-weight: bold' >ball A</span> a cause of <b>ball E</b> going through the <span style='color:red; font-weight: bold' >goal</span>?</p><br /><br /></div>",0,"""","""","""","""","""","2021-12-12 20:01:46",120.230.116.95,"Mozilla/5.0 (iPad; CPU OS 15_1 like Mac OS X) AppleWebKit/605.1.15 (KHTML, like Gecko) Mobile/15E148 MicroMessenger/8.0.15(0x18000f2e) NetType/WIFI Language/zh_CN",iPad,Mozilla,,iOS,15_1,aa87705f22fdd126fa9d2c94f9500ee9
15,1,"""","""","""","""","""",video-button-response,117,1078779,0.0-7.0-5.2,null,"[""Case4v_Stim.mp4""]",null,"""","""","""","""","""","2021-12-12 20:01:46",120.230.116.95,"Mozilla/5.0 (iPad; CPU OS 15_1 like Mac OS X) AppleWebKit/605.1.15 (KHTML, like Gecko) Mobile/15E148 MicroMessenger/8.0.15(0x18000f2e) NetType/WIFI Language/zh_CN",iPad,Mozilla,,iOS,15_1,aa87705f22fdd126fa9d2c94f9500ee9
15,1,"""","""","""","""","""",html-slider-response,118,1086547,0.0-7.0-6.2,"""","""","""","<p>Is <span style='color:green; font-weight: bold' >ball A</span> a cause of <b>ball E</b> going through the <span style='color:red; font-weight: bold' >goal</span>?</p>",Case4v_Stim.mp4,96,"""","""","2021-12-12 20:01:46",120.230.116.95,"Mozilla/5.0 (iPad; CPU OS 15_1 like Mac OS X) AppleWebKit/605.1.15 (KHTML, like Gecko) Mobile/15E148 MicroMessenger/8.0.15(0x18000f2e) NetType/WIFI Language/zh_CN",iPad,Mozilla,,iOS,15_1,aa87705f22fdd126fa9d2c94f9500ee9
15,1,"""","""","""","""","""",html-button-response,119,1087893,0.0-7.0-0.3,1344,"<div style=""max-width:1000px;""><img><img src=""Case0v.png"" width=""500"" height=""375""></img><p>If <span style='color:green; font-weight: bold' >ball A</span> had been removed, how likely would <b>ball E</b> have gone through the <span style='color:red; font-weight: bold' >goal</span>?</p><br /><br /></div>",0,"""","""","""","""","""","2021-12-12 20:01:46",120.230.116.95,"Mozilla/5.0 (iPad; CPU OS 15_1 like Mac OS X) AppleWebKit/605.1.15 (KHTML, like Gecko) Mobile/15E148 MicroMessenger/8.0.15(0x18000f2e) NetType/WIFI Language/zh_CN",iPad,Mozilla,,iOS,15_1,aa87705f22fdd126fa9d2c94f9500ee9
15,1,"""","""","""","""","""",video-button-response,120,1095161,0.0-7.0-1.3,7261,"[""Case0v_Stim.mp4""]",0,"""","""","""","""","""","2021-12-12 20:01:46",120.230.116.95,"Mozilla/5.0 (iPad; CPU OS 15_1 like Mac OS X) AppleWebKit/605.1.15 (KHTML, like Gecko) Mobile/15E148 MicroMessenger/8.0.15(0x18000f2e) NetType/WIFI Language/zh_CN",iPad,Mozilla,,iOS,15_1,aa87705f22fdd126fa9d2c94f9500ee9
15,1,"""","""","""","""","""",video-button-response,121,1101401,0.0-7.0-2.3,null,"[""Case0v_Stim.mp4""]",null,"""","""","""","""","""","2021-12-12 20:01:46",120.230.116.95,"Mozilla/5.0 (iPad; CPU OS 15_1 like Mac OS X) AppleWebKit/605.1.15 (KHTML, like Gecko) Mobile/15E148 MicroMessenger/8.0.15(0x18000f2e) NetType/WIFI Language/zh_CN",iPad,Mozilla,,iOS,15_1,aa87705f22fdd126fa9d2c94f9500ee9
15,1,"""","""","""","""","""",html-slider-response,122,1104447,0.0-7.0-3.3,"""","""","""","<p>If <span style='color:green; font-weight: bold' >ball A</span> had been removed, how likely would <b>ball E</b> have gone through the <span style='color:red; font-weight: bold' >goal</span>?</p>",Case0v_Stim.mp4,6,"""","""","2021-12-12 20:01:46",120.230.116.95,"Mozilla/5.0 (iPad; CPU OS 15_1 like Mac OS X) AppleWebKit/605.1.15 (KHTML, like Gecko) Mobile/15E148 MicroMessenger/8.0.15(0x18000f2e) NetType/WIFI Language/zh_CN",iPad,Mozilla,,iOS,15_1,aa87705f22fdd126fa9d2c94f9500ee9
15,1,"""","""","""","""","""",html-button-response,123,1106445,0.0-7.0-4.3,1996.0000000002328,"<div style=""max-width:1000px;""><img><img src=""Case0v.png"" width=""500"" height=""375""></img><p> Now watch the video one more time and answer:</p><p>Is <span style='color:green; font-weight: bold' >ball A</span> a cause of <b>ball E</b> going through the <span style='color:red; font-weight: bold' >goal</span>?</p><br /><br /></div>",0,"""","""","""","""","""","2021-12-12 20:01:46",120.230.116.95,"Mozilla/5.0 (iPad; CPU OS 15_1 like Mac OS X) AppleWebKit/605.1.15 (KHTML, like Gecko) Mobile/15E148 MicroMessenger/8.0.15(0x18000f2e) NetType/WIFI Language/zh_CN",iPad,Mozilla,,iOS,15_1,aa87705f22fdd126fa9d2c94f9500ee9
15,1,"""","""","""","""","""",video-button-response,124,1112682,0.0-7.0-5.3,null,"[""Case0v_Stim.mp4""]",null,"""","""","""","""","""","2021-12-12 20:01:46",120.230.116.95,"Mozilla/5.0 (iPad; CPU OS 15_1 like Mac OS X) AppleWebKit/605.1.15 (KHTML, like Gecko) Mobile/15E148 MicroMessenger/8.0.15(0x18000f2e) NetType/WIFI Language/zh_CN",iPad,Mozilla,,iOS,15_1,aa87705f22fdd126fa9d2c94f9500ee9
15,1,"""","""","""","""","""",html-slider-response,125,1118731,0.0-7.0-6.3,"""","""","""","<p>Is <span style='color:green; font-weight: bold' >ball A</span> a cause of <b>ball E</b> going through the <span style='color:red; font-weight: bold' >goal</span>?</p>",Case0v_Stim.mp4,50,"""","""","2021-12-12 20:01:46",120.230.116.95,"Mozilla/5.0 (iPad; CPU OS 15_1 like Mac OS X) AppleWebKit/605.1.15 (KHTML, like Gecko) Mobile/15E148 MicroMessenger/8.0.15(0x18000f2e) NetType/WIFI Language/zh_CN",iPad,Mozilla,,iOS,15_1,aa87705f22fdd126fa9d2c94f9500ee9
15,1,"""","""","""","""","""",html-button-response,126,1120031,0.0-7.0-0.4,1297,"<div style=""max-width:1000px;""><img><img src=""Case7v.png"" width=""500"" height=""375""></img><p>If <span style='color:green; font-weight: bold' >ball A</span> had been removed, how likely would <b>ball E</b> have gone through the <span style='color:red; font-weight: bold' >goal</span>?</p><br /><br /></div>",0,"""","""","""","""","""","2021-12-12 20:01:46",120.230.116.95,"Mozilla/5.0 (iPad; CPU OS 15_1 like Mac OS X) AppleWebKit/605.1.15 (KHTML, like Gecko) Mobile/15E148 MicroMessenger/8.0.15(0x18000f2e) NetType/WIFI Language/zh_CN",iPad,Mozilla,,iOS,15_1,aa87705f22fdd126fa9d2c94f9500ee9
15,1,"""","""","""","""","""",video-button-response,127,1128082,0.0-7.0-1.4,8044.000000000233,"[""Case7v_Stim.mp4""]",0,"""","""","""","""","""","2021-12-12 20:01:46",120.230.116.95,"Mozilla/5.0 (iPad; CPU OS 15_1 like Mac OS X) AppleWebKit/605.1.15 (KHTML, like Gecko) Mobile/15E148 MicroMessenger/8.0.15(0x18000f2e) NetType/WIFI Language/zh_CN",iPad,Mozilla,,iOS,15_1,aa87705f22fdd126fa9d2c94f9500ee9
15,1,"""","""","""","""","""",video-button-response,128,1134320,0.0-7.0-2.4,null,"[""Case7v_Stim.mp4""]",null,"""","""","""","""","""","2021-12-12 20:01:46",120.230.116.95,"Mozilla/5.0 (iPad; CPU OS 15_1 like Mac OS X) AppleWebKit/605.1.15 (KHTML, like Gecko) Mobile/15E148 MicroMessenger/8.0.15(0x18000f2e) NetType/WIFI Language/zh_CN",iPad,Mozilla,,iOS,15_1,aa87705f22fdd126fa9d2c94f9500ee9
15,1,"""","""","""","""","""",html-slider-response,129,1137783,0.0-7.0-3.4,"""","""","""","<p>If <span style='color:green; font-weight: bold' >ball A</span> had been removed, how likely would <b>ball E</b> have gone through the <span style='color:red; font-weight: bold' >goal</span>?</p>",Case7v_Stim.mp4,28,"""","""","2021-12-12 20:01:46",120.230.116.95,"Mozilla/5.0 (iPad; CPU OS 15_1 like Mac OS X) AppleWebKit/605.1.15 (KHTML, like Gecko) Mobile/15E148 MicroMessenger/8.0.15(0x18000f2e) NetType/WIFI Language/zh_CN",iPad,Mozilla,,iOS,15_1,aa87705f22fdd126fa9d2c94f9500ee9
15,1,"""","""","""","""","""",html-button-response,130,1138983,0.0-7.0-4.4,1198,"<div style=""max-width:1000px;""><img><img src=""Case7v.png"" width=""500"" height=""375""></img><p> Now watch the video one more time and answer:</p><p>Is <span style='color:green; font-weight: bold' >ball A</span> a cause of <b>ball E</b> going through the <span style='color:red; font-weight: bold' >goal</span>?</p><br /><br /></div>",0,"""","""","""","""","""","2021-12-12 20:01:46",120.230.116.95,"Mozilla/5.0 (iPad; CPU OS 15_1 like Mac OS X) AppleWebKit/605.1.15 (KHTML, like Gecko) Mobile/15E148 MicroMessenger/8.0.15(0x18000f2e) NetType/WIFI Language/zh_CN",iPad,Mozilla,,iOS,15_1,aa87705f22fdd126fa9d2c94f9500ee9
15,1,"""","""","""","""","""",video-button-response,131,1145225,0.0-7.0-5.4,null,"[""Case7v_Stim.mp4""]",null,"""","""","""","""","""","2021-12-12 20:01:46",120.230.116.95,"Mozilla/5.0 (iPad; CPU OS 15_1 like Mac OS X) AppleWebKit/605.1.15 (KHTML, like Gecko) Mobile/15E148 MicroMessenger/8.0.15(0x18000f2e) NetType/WIFI Language/zh_CN",iPad,Mozilla,,iOS,15_1,aa87705f22fdd126fa9d2c94f9500ee9
15,1,"""","""","""","""","""",html-slider-response,132,1152937,0.0-7.0-6.4,"""","""","""","<p>Is <span style='color:green; font-weight: bold' >ball A</span> a cause of <b>ball E</b> going through the <span style='color:red; font-weight: bold' >goal</span>?</p>",Case7v_Stim.mp4,71,"""","""","2021-12-12 20:01:46",120.230.116.95,"Mozilla/5.0 (iPad; CPU OS 15_1 like Mac OS X) AppleWebKit/605.1.15 (KHTML, like Gecko) Mobile/15E148 MicroMessenger/8.0.15(0x18000f2e) NetType/WIFI Language/zh_CN",iPad,Mozilla,,iOS,15_1,aa87705f22fdd126fa9d2c94f9500ee9
15,1,"""","""","""","""","""",html-button-response,133,1154219,0.0-7.0-0.5,1280,"<div style=""max-width:1000px;""><img><img src=""Case12v.png"" width=""500"" height=""375""></img><p>If <span style='color:green; font-weight: bold' >ball A</span> had been removed, how likely would <b>ball E</b> have gone through the <span style='color:red; font-weight: bold' >goal</span>?</p><br /><br /></div>",0,"""","""","""","""","""","2021-12-12 20:01:46",120.230.116.95,"Mozilla/5.0 (iPad; CPU OS 15_1 like Mac OS X) AppleWebKit/605.1.15 (KHTML, like Gecko) Mobile/15E148 MicroMessenger/8.0.15(0x18000f2e) NetType/WIFI Language/zh_CN",iPad,Mozilla,,iOS,15_1,aa87705f22fdd126fa9d2c94f9500ee9
15,1,"""","""","""","""","""",video-button-response,134,1161803,0.0-7.0-1.5,7576.000000000233,"[""Case12v_Stim.mp4""]",0,"""","""","""","""","""","2021-12-12 20:01:46",120.230.116.95,"Mozilla/5.0 (iPad; CPU OS 15_1 like Mac OS X) AppleWebKit/605.1.15 (KHTML, like Gecko) Mobile/15E148 MicroMessenger/8.0.15(0x18000f2e) NetType/WIFI Language/zh_CN",iPad,Mozilla,,iOS,15_1,aa87705f22fdd126fa9d2c94f9500ee9
15,1,"""","""","""","""","""",video-button-response,135,1168041,0.0-7.0-2.5,null,"[""Case12v_Stim.mp4""]",null,"""","""","""","""","""","2021-12-12 20:01:46",120.230.116.95,"Mozilla/5.0 (iPad; CPU OS 15_1 like Mac OS X) AppleWebKit/605.1.15 (KHTML, like Gecko) Mobile/15E148 MicroMessenger/8.0.15(0x18000f2e) NetType/WIFI Language/zh_CN",iPad,Mozilla,,iOS,15_1,aa87705f22fdd126fa9d2c94f9500ee9
15,1,"""","""","""","""","""",html-slider-response,136,1174522,0.0-7.0-3.5,"""","""","""","<p>If <span style='color:green; font-weight: bold' >ball A</span> had been removed, how likely would <b>ball E</b> have gone through the <span style='color:red; font-weight: bold' >goal</span>?</p>",Case12v_Stim.mp4,1,"""","""","2021-12-12 20:01:46",120.230.116.95,"Mozilla/5.0 (iPad; CPU OS 15_1 like Mac OS X) AppleWebKit/605.1.15 (KHTML, like Gecko) Mobile/15E148 MicroMessenger/8.0.15(0x18000f2e) NetType/WIFI Language/zh_CN",iPad,Mozilla,,iOS,15_1,aa87705f22fdd126fa9d2c94f9500ee9
15,1,"""","""","""","""","""",html-button-response,137,1176119,0.0-7.0-4.5,1594.9999999997672,"<div style=""max-width:1000px;""><img><img src=""Case12v.png"" width=""500"" height=""375""></img><p> Now watch the video one more time and answer:</p><p>Is <span style='color:green; font-weight: bold' >ball A</span> a cause of <b>ball E</b> going through the <span style='color:red; font-weight: bold' >goal</span>?</p><br /><br /></div>",0,"""","""","""","""","""","2021-12-12 20:01:46",120.230.116.95,"Mozilla/5.0 (iPad; CPU OS 15_1 like Mac OS X) AppleWebKit/605.1.15 (KHTML, like Gecko) Mobile/15E148 MicroMessenger/8.0.15(0x18000f2e) NetType/WIFI Language/zh_CN",iPad,Mozilla,,iOS,15_1,aa87705f22fdd126fa9d2c94f9500ee9
15,1,"""","""","""","""","""",video-button-response,138,1182365,0.0-7.0-5.5,null,"[""Case12v_Stim.mp4""]",null,"""","""","""","""","""","2021-12-12 20:01:46",120.230.116.95,"Mozilla/5.0 (iPad; CPU OS 15_1 like Mac OS X) AppleWebKit/605.1.15 (KHTML, like Gecko) Mobile/15E148 MicroMessenger/8.0.15(0x18000f2e) NetType/WIFI Language/zh_CN",iPad,Mozilla,,iOS,15_1,aa87705f22fdd126fa9d2c94f9500ee9
15,1,"""","""","""","""","""",html-slider-response,139,1186504,0.0-7.0-6.5,"""","""","""","<p>Is <span style='color:green; font-weight: bold' >ball A</span> a cause of <b>ball E</b> going through the <span style='color:red; font-weight: bold' >goal</span>?</p>",Case12v_Stim.mp4,74,"""","""","2021-12-12 20:01:46",120.230.116.95,"Mozilla/5.0 (iPad; CPU OS 15_1 like Mac OS X) AppleWebKit/605.1.15 (KHTML, like Gecko) Mobile/15E148 MicroMessenger/8.0.15(0x18000f2e) NetType/WIFI Language/zh_CN",iPad,Mozilla,,iOS,15_1,aa87705f22fdd126fa9d2c94f9500ee9
15,1,"""","""","""","""","""",html-button-response,140,1188172,0.0-7.0-0.6,1662,"<div style=""max-width:1000px;""><img><img src=""Case14v.png"" width=""500"" height=""375""></img><p>If <span style='color:green; font-weight: bold' >ball A</span> had been removed, how likely would <b>ball E</b> have gone through the <span style='color:red; font-weight: bold' >goal</span>?</p><br /><br /></div>",0,"""","""","""","""","""","2021-12-12 20:01:46",120.230.116.95,"Mozilla/5.0 (iPad; CPU OS 15_1 like Mac OS X) AppleWebKit/605.1.15 (KHTML, like Gecko) Mobile/15E148 MicroMessenger/8.0.15(0x18000f2e) NetType/WIFI Language/zh_CN",iPad,Mozilla,,iOS,15_1,aa87705f22fdd126fa9d2c94f9500ee9
15,1,"""","""","""","""","""",video-button-response,141,1195057,0.0-7.0-1.6,6882,"[""Case14v_Stim.mp4""]",0,"""","""","""","""","""","2021-12-12 20:01:46",120.230.116.95,"Mozilla/5.0 (iPad; CPU OS 15_1 like Mac OS X) AppleWebKit/605.1.15 (KHTML, like Gecko) Mobile/15E148 MicroMessenger/8.0.15(0x18000f2e) NetType/WIFI Language/zh_CN",iPad,Mozilla,,iOS,15_1,aa87705f22fdd126fa9d2c94f9500ee9
15,1,"""","""","""","""","""",video-button-response,142,1201297,0.0-7.0-2.6,null,"[""Case14v_Stim.mp4""]",null,"""","""","""","""","""","2021-12-12 20:01:46",120.230.116.95,"Mozilla/5.0 (iPad; CPU OS 15_1 like Mac OS X) AppleWebKit/605.1.15 (KHTML, like Gecko) Mobile/15E148 MicroMessenger/8.0.15(0x18000f2e) NetType/WIFI Language/zh_CN",iPad,Mozilla,,iOS,15_1,aa87705f22fdd126fa9d2c94f9500ee9
15,1,"""","""","""","""","""",html-slider-response,143,1203811,0.0-7.0-3.6,"""","""","""","<p>If <span style='color:green; font-weight: bold' >ball A</span> had been removed, how likely would <b>ball E</b> have gone through the <span style='color:red; font-weight: bold' >goal</span>?</p>",Case14v_Stim.mp4,100,"""","""","2021-12-12 20:01:46",120.230.116.95,"Mozilla/5.0 (iPad; CPU OS 15_1 like Mac OS X) AppleWebKit/605.1.15 (KHTML, like Gecko) Mobile/15E148 MicroMessenger/8.0.15(0x18000f2e) NetType/WIFI Language/zh_CN",iPad,Mozilla,,iOS,15_1,aa87705f22fdd126fa9d2c94f9500ee9
15,1,"""","""","""","""","""",html-button-response,144,1205257,0.0-7.0-4.6,1440,"<div style=""max-width:1000px;""><img><img src=""Case14v.png"" width=""500"" height=""375""></img><p> Now watch the video one more time and answer:</p><p>Is <span style='color:green; font-weight: bold' >ball A</span> a cause of <b>ball E</b> going through the <span style='color:red; font-weight: bold' >goal</span>?</p><br /><br /></div>",0,"""","""","""","""","""","2021-12-12 20:01:46",120.230.116.95,"Mozilla/5.0 (iPad; CPU OS 15_1 like Mac OS X) AppleWebKit/605.1.15 (KHTML, like Gecko) Mobile/15E148 MicroMessenger/8.0.15(0x18000f2e) NetType/WIFI Language/zh_CN",iPad,Mozilla,,iOS,15_1,aa87705f22fdd126fa9d2c94f9500ee9
15,1,"""","""","""","""","""",video-button-response,145,1211491,0.0-7.0-5.6,null,"[""Case14v_Stim.mp4""]",null,"""","""","""","""","""","2021-12-12 20:01:46",120.230.116.95,"Mozilla/5.0 (iPad; CPU OS 15_1 like Mac OS X) AppleWebKit/605.1.15 (KHTML, like Gecko) Mobile/15E148 MicroMessenger/8.0.15(0x18000f2e) NetType/WIFI Language/zh_CN",iPad,Mozilla,,iOS,15_1,aa87705f22fdd126fa9d2c94f9500ee9
15,1,"""","""","""","""","""",html-slider-response,146,1233079,0.0-7.0-6.6,"""","""","""","<p>Is <span style='color:green; font-weight: bold' >ball A</span> a cause of <b>ball E</b> going through the <span style='color:red; font-weight: bold' >goal</span>?</p>",Case14v_Stim.mp4,33,"""","""","2021-12-12 20:01:46",120.230.116.95,"Mozilla/5.0 (iPad; CPU OS 15_1 like Mac OS X) AppleWebKit/605.1.15 (KHTML, like Gecko) Mobile/15E148 MicroMessenger/8.0.15(0x18000f2e) NetType/WIFI Language/zh_CN",iPad,Mozilla,,iOS,15_1,aa87705f22fdd126fa9d2c94f9500ee9
15,1,"""","""","""","""","""",html-button-response,147,1234793,0.0-7.0-0.7,1712,"<div style=""max-width:1000px;""><img><img src=""Case1v.png"" width=""500"" height=""375""></img><p>If <span style='color:green; font-weight: bold' >ball A</span> had been removed, how likely would <b>ball E</b> have gone through the <span style='color:red; font-weight: bold' >goal</span>?</p><br /><br /></div>",0,"""","""","""","""","""","2021-12-12 20:01:46",120.230.116.95,"Mozilla/5.0 (iPad; CPU OS 15_1 like Mac OS X) AppleWebKit/605.1.15 (KHTML, like Gecko) Mobile/15E148 MicroMessenger/8.0.15(0x18000f2e) NetType/WIFI Language/zh_CN",iPad,Mozilla,,iOS,15_1,aa87705f22fdd126fa9d2c94f9500ee9
15,1,"""","""","""","""","""",video-button-response,148,1241946,0.0-7.0-1.7,7145,"[""Case1v_Stim.mp4""]",0,"""","""","""","""","""","2021-12-12 20:01:46",120.230.116.95,"Mozilla/5.0 (iPad; CPU OS 15_1 like Mac OS X) AppleWebKit/605.1.15 (KHTML, like Gecko) Mobile/15E148 MicroMessenger/8.0.15(0x18000f2e) NetType/WIFI Language/zh_CN",iPad,Mozilla,,iOS,15_1,aa87705f22fdd126fa9d2c94f9500ee9
15,1,"""","""","""","""","""",video-button-response,149,1248189,0.0-7.0-2.7,null,"[""Case1v_Stim.mp4""]",null,"""","""","""","""","""","2021-12-12 20:01:46",120.230.116.95,"Mozilla/5.0 (iPad; CPU OS 15_1 like Mac OS X) AppleWebKit/605.1.15 (KHTML, like Gecko) Mobile/15E148 MicroMessenger/8.0.15(0x18000f2e) NetType/WIFI Language/zh_CN",iPad,Mozilla,,iOS,15_1,aa87705f22fdd126fa9d2c94f9500ee9
15,1,"""","""","""","""","""",html-slider-response,150,1251531,0.0-7.0-3.7,"""","""","""","<p>If <span style='color:green; font-weight: bold' >ball A</span> had been removed, how likely would <b>ball E</b> have gone through the <span style='color:red; font-weight: bold' >goal</span>?</p>",Case1v_Stim.mp4,21,"""","""","2021-12-12 20:01:46",120.230.116.95,"Mozilla/5.0 (iPad; CPU OS 15_1 like Mac OS X) AppleWebKit/605.1.15 (KHTML, like Gecko) Mobile/15E148 MicroMessenger/8.0.15(0x18000f2e) NetType/WIFI Language/zh_CN",iPad,Mozilla,,iOS,15_1,aa87705f22fdd126fa9d2c94f9500ee9
15,1,"""","""","""","""","""",html-button-response,151,1255730,0.0-7.0-4.7,4196,"<div style=""max-width:1000px;""><img><img src=""Case1v.png"" width=""500"" height=""375""></img><p> Now watch the video one more time and answer:</p><p>Is <span style='color:green; font-weight: bold' >ball A</span> a cause of <b>ball E</b> going through the <span style='color:red; font-weight: bold' >goal</span>?</p><br /><br /></div>",0,"""","""","""","""","""","2021-12-12 20:01:46",120.230.116.95,"Mozilla/5.0 (iPad; CPU OS 15_1 like Mac OS X) AppleWebKit/605.1.15 (KHTML, like Gecko) Mobile/15E148 MicroMessenger/8.0.15(0x18000f2e) NetType/WIFI Language/zh_CN",iPad,Mozilla,,iOS,15_1,aa87705f22fdd126fa9d2c94f9500ee9
15,1,"""","""","""","""","""",video-button-response,152,1261975,0.0-7.0-5.7,null,"[""Case1v_Stim.mp4""]",null,"""","""","""","""","""","2021-12-12 20:01:46",120.230.116.95,"Mozilla/5.0 (iPad; CPU OS 15_1 like Mac OS X) AppleWebKit/605.1.15 (KHTML, like Gecko) Mobile/15E148 MicroMessenger/8.0.15(0x18000f2e) NetType/WIFI Language/zh_CN",iPad,Mozilla,,iOS,15_1,aa87705f22fdd126fa9d2c94f9500ee9
15,1,"""","""","""","""","""",html-slider-response,153,1268369,0.0-7.0-6.7,"""","""","""","<p>Is <span style='color:green; font-weight: bold' >ball A</span> a cause of <b>ball E</b> going through the <span style='color:red; font-weight: bold' >goal</span>?</p>",Case1v_Stim.mp4,91,"""","""","2021-12-12 20:01:46",120.230.116.95,"Mozilla/5.0 (iPad; CPU OS 15_1 like Mac OS X) AppleWebKit/605.1.15 (KHTML, like Gecko) Mobile/15E148 MicroMessenger/8.0.15(0x18000f2e) NetType/WIFI Language/zh_CN",iPad,Mozilla,,iOS,15_1,aa87705f22fdd126fa9d2c94f9500ee9
15,1,"""","""","""","""","""",html-button-response,154,1273102,0.0-7.0-0.8,4727,"<div style=""max-width:1000px;""><img><img src=""Case11v.png"" width=""500"" height=""375""></img><p>If <span style='color:green; font-weight: bold' >ball A</span> had been removed, how likely would <b>ball E</b> have gone through the <span style='color:red; font-weight: bold' >goal</span>?</p><br /><br /></div>",0,"""","""","""","""","""","2021-12-12 20:01:46",120.230.116.95,"Mozilla/5.0 (iPad; CPU OS 15_1 like Mac OS X) AppleWebKit/605.1.15 (KHTML, like Gecko) Mobile/15E148 MicroMessenger/8.0.15(0x18000f2e) NetType/WIFI Language/zh_CN",iPad,Mozilla,,iOS,15_1,aa87705f22fdd126fa9d2c94f9500ee9
15,1,"""","""","""","""","""",video-button-response,155,1281700,0.0-7.0-1.8,8595.000000000233,"[""Case11v_Stim.mp4""]",0,"""","""","""","""","""","2021-12-12 20:01:46",120.230.116.95,"Mozilla/5.0 (iPad; CPU OS 15_1 like Mac OS X) AppleWebKit/605.1.15 (KHTML, like Gecko) Mobile/15E148 MicroMessenger/8.0.15(0x18000f2e) NetType/WIFI Language/zh_CN",iPad,Mozilla,,iOS,15_1,aa87705f22fdd126fa9d2c94f9500ee9
15,1,"""","""","""","""","""",video-button-response,156,1287936,0.0-7.0-2.8,null,"[""Case11v_Stim.mp4""]",null,"""","""","""","""","""","2021-12-12 20:01:46",120.230.116.95,"Mozilla/5.0 (iPad; CPU OS 15_1 like Mac OS X) AppleWebKit/605.1.15 (KHTML, like Gecko) Mobile/15E148 MicroMessenger/8.0.15(0x18000f2e) NetType/WIFI Language/zh_CN",iPad,Mozilla,,iOS,15_1,aa87705f22fdd126fa9d2c94f9500ee9
15,1,"""","""","""","""","""",html-slider-response,157,1294636,0.0-7.0-3.8,"""","""","""","<p>If <span style='color:green; font-weight: bold' >ball A</span> had been removed, how likely would <b>ball E</b> have gone through the <span style='color:red; font-weight: bold' >goal</span>?</p>",Case11v_Stim.mp4,99,"""","""","2021-12-12 20:01:46",120.230.116.95,"Mozilla/5.0 (iPad; CPU OS 15_1 like Mac OS X) AppleWebKit/605.1.15 (KHTML, like Gecko) Mobile/15E148 MicroMessenger/8.0.15(0x18000f2e) NetType/WIFI Language/zh_CN",iPad,Mozilla,,iOS,15_1,aa87705f22fdd126fa9d2c94f9500ee9
15,1,"""","""","""","""","""",html-button-response,158,1296452,0.0-7.0-4.8,1808,"<div style=""max-width:1000px;""><img><img src=""Case11v.png"" width=""500"" height=""375""></img><p> Now watch the video one more time and answer:</p><p>Is <span style='color:green; font-weight: bold' >ball A</span> a cause of <b>ball E</b> going through the <span style='color:red; font-weight: bold' >goal</span>?</p><br /><br /></div>",0,"""","""","""","""","""","2021-12-12 20:01:46",120.230.116.95,"Mozilla/5.0 (iPad; CPU OS 15_1 like Mac OS X) AppleWebKit/605.1.15 (KHTML, like Gecko) Mobile/15E148 MicroMessenger/8.0.15(0x18000f2e) NetType/WIFI Language/zh_CN",iPad,Mozilla,,iOS,15_1,aa87705f22fdd126fa9d2c94f9500ee9
15,1,"""","""","""","""","""",video-button-response,159,1302699,0.0-7.0-5.8,null,"[""Case11v_Stim.mp4""]",null,"""","""","""","""","""","2021-12-12 20:01:46",120.230.116.95,"Mozilla/5.0 (iPad; CPU OS 15_1 like Mac OS X) AppleWebKit/605.1.15 (KHTML, like Gecko) Mobile/15E148 MicroMessenger/8.0.15(0x18000f2e) NetType/WIFI Language/zh_CN",iPad,Mozilla,,iOS,15_1,aa87705f22fdd126fa9d2c94f9500ee9
15,1,"""","""","""","""","""",html-slider-response,160,1309705,0.0-7.0-6.8,"""","""","""","<p>Is <span style='color:green; font-weight: bold' >ball A</span> a cause of <b>ball E</b> going through the <span style='color:red; font-weight: bold' >goal</span>?</p>",Case11v_Stim.mp4,1,"""","""","2021-12-12 20:01:46",120.230.116.95,"Mozilla/5.0 (iPad; CPU OS 15_1 like Mac OS X) AppleWebKit/605.1.15 (KHTML, like Gecko) Mobile/15E148 MicroMessenger/8.0.15(0x18000f2e) NetType/WIFI Language/zh_CN",iPad,Mozilla,,iOS,15_1,aa87705f22fdd126fa9d2c94f9500ee9
15,1,"""","""","""","""","""",html-button-response,161,1311487,0.0-7.0-0.9,1779,"<div style=""max-width:1000px;""><img><img src=""Case3v.png"" width=""500"" height=""375""></img><p>If <span style='color:green; font-weight: bold' >ball A</span> had been removed, how likely would <b>ball E</b> have gone through the <span style='color:red; font-weight: bold' >goal</span>?</p><br /><br /></div>",0,"""","""","""","""","""","2021-12-12 20:01:46",120.230.116.95,"Mozilla/5.0 (iPad; CPU OS 15_1 like Mac OS X) AppleWebKit/605.1.15 (KHTML, like Gecko) Mobile/15E148 MicroMessenger/8.0.15(0x18000f2e) NetType/WIFI Language/zh_CN",iPad,Mozilla,,iOS,15_1,aa87705f22fdd126fa9d2c94f9500ee9
15,1,"""","""","""","""","""",video-button-response,162,1320388,0.0-7.0-1.9,8892,"[""Case3v_Stim.mp4""]",0,"""","""","""","""","""","2021-12-12 20:01:46",120.230.116.95,"Mozilla/5.0 (iPad; CPU OS 15_1 like Mac OS X) AppleWebKit/605.1.15 (KHTML, like Gecko) Mobile/15E148 MicroMessenger/8.0.15(0x18000f2e) NetType/WIFI Language/zh_CN",iPad,Mozilla,,iOS,15_1,aa87705f22fdd126fa9d2c94f9500ee9
15,1,"""","""","""","""","""",video-button-response,163,1326623,0.0-7.0-2.9,null,"[""Case3v_Stim.mp4""]",null,"""","""","""","""","""","2021-12-12 20:01:46",120.230.116.95,"Mozilla/5.0 (iPad; CPU OS 15_1 like Mac OS X) AppleWebKit/605.1.15 (KHTML, like Gecko) Mobile/15E148 MicroMessenger/8.0.15(0x18000f2e) NetType/WIFI Language/zh_CN",iPad,Mozilla,,iOS,15_1,aa87705f22fdd126fa9d2c94f9500ee9
15,1,"""","""","""","""","""",html-slider-response,164,1329225,0.0-7.0-3.9,"""","""","""","<p>If <span style='color:green; font-weight: bold' >ball A</span> had been removed, how likely would <b>ball E</b> have gone through the <span style='color:red; font-weight: bold' >goal</span>?</p>",Case3v_Stim.mp4,24,"""","""","2021-12-12 20:01:46",120.230.116.95,"Mozilla/5.0 (iPad; CPU OS 15_1 like Mac OS X) AppleWebKit/605.1.15 (KHTML, like Gecko) Mobile/15E148 MicroMessenger/8.0.15(0x18000f2e) NetType/WIFI Language/zh_CN",iPad,Mozilla,,iOS,15_1,aa87705f22fdd126fa9d2c94f9500ee9
15,1,"""","""","""","""","""",html-button-response,165,1330690,0.0-7.0-4.9,1463,"<div style=""max-width:1000px;""><img><img src=""Case3v.png"" width=""500"" height=""375""></img><p> Now watch the video one more time and answer:</p><p>Is <span style='color:green; font-weight: bold' >ball A</span> a cause of <b>ball E</b> going through the <span style='color:red; font-weight: bold' >goal</span>?</p><br /><br /></div>",0,"""","""","""","""","""","2021-12-12 20:01:46",120.230.116.95,"Mozilla/5.0 (iPad; CPU OS 15_1 like Mac OS X) AppleWebKit/605.1.15 (KHTML, like Gecko) Mobile/15E148 MicroMessenger/8.0.15(0x18000f2e) NetType/WIFI Language/zh_CN",iPad,Mozilla,,iOS,15_1,aa87705f22fdd126fa9d2c94f9500ee9
15,1,"""","""","""","""","""",video-button-response,166,1336923,0.0-7.0-5.9,null,"[""Case3v_Stim.mp4""]",null,"""","""","""","""","""","2021-12-12 20:01:46",120.230.116.95,"Mozilla/5.0 (iPad; CPU OS 15_1 like Mac OS X) AppleWebKit/605.1.15 (KHTML, like Gecko) Mobile/15E148 MicroMessenger/8.0.15(0x18000f2e) NetType/WIFI Language/zh_CN",iPad,Mozilla,,iOS,15_1,aa87705f22fdd126fa9d2c94f9500ee9
15,1,"""","""","""","""","""",html-slider-response,167,1340542,0.0-7.0-6.9,"""","""","""","<p>Is <span style='color:green; font-weight: bold' >ball A</span> a cause of <b>ball E</b> going through the <span style='color:red; font-weight: bold' >goal</span>?</p>",Case3v_Stim.mp4,67,"""","""","2021-12-12 20:01:46",120.230.116.95,"Mozilla/5.0 (iPad; CPU OS 15_1 like Mac OS X) AppleWebKit/605.1.15 (KHTML, like Gecko) Mobile/15E148 MicroMessenger/8.0.15(0x18000f2e) NetType/WIFI Language/zh_CN",iPad,Mozilla,,iOS,15_1,aa87705f22fdd126fa9d2c94f9500ee9
15,1,"""","""","""","""","""",html-button-response,168,1345007,0.0-7.0-0.10,4464,"<div style=""max-width:1000px;""><img><img src=""Case5v.png"" width=""500"" height=""375""></img><p>If <span style='color:green; font-weight: bold' >ball A</span> had been removed, how likely would <b>ball E</b> have gone through the <span style='color:red; font-weight: bold' >goal</span>?</p><br /><br /></div>",0,"""","""","""","""","""","2021-12-12 20:01:46",120.230.116.95,"Mozilla/5.0 (iPad; CPU OS 15_1 like Mac OS X) AppleWebKit/605.1.15 (KHTML, like Gecko) Mobile/15E148 MicroMessenger/8.0.15(0x18000f2e) NetType/WIFI Language/zh_CN",iPad,Mozilla,,iOS,15_1,aa87705f22fdd126fa9d2c94f9500ee9
15,1,"""","""","""","""","""",video-button-response,169,1353225,0.0-7.0-1.10,8211,"[""Case5v_Stim.mp4""]",0,"""","""","""","""","""","2021-12-12 20:01:46",120.230.116.95,"Mozilla/5.0 (iPad; CPU OS 15_1 like Mac OS X) AppleWebKit/605.1.15 (KHTML, like Gecko) Mobile/15E148 MicroMessenger/8.0.15(0x18000f2e) NetType/WIFI Language/zh_CN",iPad,Mozilla,,iOS,15_1,aa87705f22fdd126fa9d2c94f9500ee9
15,1,"""","""","""","""","""",video-button-response,170,1359472,0.0-7.0-2.10,null,"[""Case5v_Stim.mp4""]",null,"""","""","""","""","""","2021-12-12 20:01:46",120.230.116.95,"Mozilla/5.0 (iPad; CPU OS 15_1 like Mac OS X) AppleWebKit/605.1.15 (KHTML, like Gecko) Mobile/15E148 MicroMessenger/8.0.15(0x18000f2e) NetType/WIFI Language/zh_CN",iPad,Mozilla,,iOS,15_1,aa87705f22fdd126fa9d2c94f9500ee9
15,1,"""","""","""","""","""",html-slider-response,171,1363027,0.0-7.0-3.10,"""","""","""","<p>If <span style='color:green; font-weight: bold' >ball A</span> had been removed, how likely would <b>ball E</b> have gone through the <span style='color:red; font-weight: bold' >goal</span>?</p>",Case5v_Stim.mp4,100,"""","""","2021-12-12 20:01:46",120.230.116.95,"Mozilla/5.0 (iPad; CPU OS 15_1 like Mac OS X) AppleWebKit/605.1.15 (KHTML, like Gecko) Mobile/15E148 MicroMessenger/8.0.15(0x18000f2e) NetType/WIFI Language/zh_CN",iPad,Mozilla,,iOS,15_1,aa87705f22fdd126fa9d2c94f9500ee9
15,1,"""","""","""","""","""",html-button-response,172,1366226,0.0-7.0-4.10,3197,"<div style=""max-width:1000px;""><img><img src=""Case5v.png"" width=""500"" height=""375""></img><p> Now watch the video one more time and answer:</p><p>Is <span style='color:green; font-weight: bold' >ball A</span> a cause of <b>ball E</b> going through the <span style='color:red; font-weight: bold' >goal</span>?</p><br /><br /></div>",0,"""","""","""","""","""","2021-12-12 20:01:46",120.230.116.95,"Mozilla/5.0 (iPad; CPU OS 15_1 like Mac OS X) AppleWebKit/605.1.15 (KHTML, like Gecko) Mobile/15E148 MicroMessenger/8.0.15(0x18000f2e) NetType/WIFI Language/zh_CN",iPad,Mozilla,,iOS,15_1,aa87705f22fdd126fa9d2c94f9500ee9
15,1,"""","""","""","""","""",video-button-response,173,1372472,0.0-7.0-5.10,null,"[""Case5v_Stim.mp4""]",null,"""","""","""","""","""","2021-12-12 20:01:46",120.230.116.95,"Mozilla/5.0 (iPad; CPU OS 15_1 like Mac OS X) AppleWebKit/605.1.15 (KHTML, like Gecko) Mobile/15E148 MicroMessenger/8.0.15(0x18000f2e) NetType/WIFI Language/zh_CN",iPad,Mozilla,,iOS,15_1,aa87705f22fdd126fa9d2c94f9500ee9
15,1,"""","""","""","""","""",html-slider-response,174,1391465,0.0-7.0-6.10,"""","""","""","<p>Is <span style='color:green; font-weight: bold' >ball A</span> a cause of <b>ball E</b> going through the <span style='color:red; font-weight: bold' >goal</span>?</p>",Case5v_Stim.mp4,99,"""","""","2021-12-12 20:01:46",120.230.116.95,"Mozilla/5.0 (iPad; CPU OS 15_1 like Mac OS X) AppleWebKit/605.1.15 (KHTML, like Gecko) Mobile/15E148 MicroMessenger/8.0.15(0x18000f2e) NetType/WIFI Language/zh_CN",iPad,Mozilla,,iOS,15_1,aa87705f22fdd126fa9d2c94f9500ee9
15,1,"""","""","""","""","""",html-button-response,175,1393280,0.0-7.0-0.11,1809,"<div style=""max-width:1000px;""><img><img src=""Case16v.png"" width=""500"" height=""375""></img><p>If <span style='color:green; font-weight: bold' >ball A</span> had been removed, how likely would <b>ball E</b> have gone through the <span style='color:red; font-weight: bold' >goal</span>?</p><br /><br /></div>",0,"""","""","""","""","""","2021-12-12 20:01:46",120.230.116.95,"Mozilla/5.0 (iPad; CPU OS 15_1 like Mac OS X) AppleWebKit/605.1.15 (KHTML, like Gecko) Mobile/15E148 MicroMessenger/8.0.15(0x18000f2e) NetType/WIFI Language/zh_CN",iPad,Mozilla,,iOS,15_1,aa87705f22fdd126fa9d2c94f9500ee9
15,1,"""","""","""","""","""",video-button-response,176,1401515,0.0-7.0-1.11,8232,"[""Case16v_Stim.mp4""]",0,"""","""","""","""","""","2021-12-12 20:01:46",120.230.116.95,"Mozilla/5.0 (iPad; CPU OS 15_1 like Mac OS X) AppleWebKit/605.1.15 (KHTML, like Gecko) Mobile/15E148 MicroMessenger/8.0.15(0x18000f2e) NetType/WIFI Language/zh_CN",iPad,Mozilla,,iOS,15_1,aa87705f22fdd126fa9d2c94f9500ee9
15,1,"""","""","""","""","""",video-button-response,177,1407763,0.0-7.0-2.11,null,"[""Case16v_Stim.mp4""]",null,"""","""","""","""","""","2021-12-12 20:01:46",120.230.116.95,"Mozilla/5.0 (iPad; CPU OS 15_1 like Mac OS X) AppleWebKit/605.1.15 (KHTML, like Gecko) Mobile/15E148 MicroMessenger/8.0.15(0x18000f2e) NetType/WIFI Language/zh_CN",iPad,Mozilla,,iOS,15_1,aa87705f22fdd126fa9d2c94f9500ee9
15,1,"""","""","""","""","""",html-slider-response,178,1410550,0.0-7.0-3.11,"""","""","""","<p>If <span style='color:green; font-weight: bold' >ball A</span> had been removed, how likely would <b>ball E</b> have gone through the <span style='color:red; font-weight: bold' >goal</span>?</p>",Case16v_Stim.mp4,98,"""","""","2021-12-12 20:01:46",120.230.116.95,"Mozilla/5.0 (iPad; CPU OS 15_1 like Mac OS X) AppleWebKit/605.1.15 (KHTML, like Gecko) Mobile/15E148 MicroMessenger/8.0.15(0x18000f2e) NetType/WIFI Language/zh_CN",iPad,Mozilla,,iOS,15_1,aa87705f22fdd126fa9d2c94f9500ee9
15,1,"""","""","""","""","""",html-button-response,179,1415032,0.0-7.0-4.11,4474,"<div style=""max-width:1000px;""><img><img src=""Case16v.png"" width=""500"" height=""375""></img><p> Now watch the video one more time and answer:</p><p>Is <span style='color:green; font-weight: bold' >ball A</span> a cause of <b>ball E</b> going through the <span style='color:red; font-weight: bold' >goal</span>?</p><br /><br /></div>",0,"""","""","""","""","""","2021-12-12 20:01:46",120.230.116.95,"Mozilla/5.0 (iPad; CPU OS 15_1 like Mac OS X) AppleWebKit/605.1.15 (KHTML, like Gecko) Mobile/15E148 MicroMessenger/8.0.15(0x18000f2e) NetType/WIFI Language/zh_CN",iPad,Mozilla,,iOS,15_1,aa87705f22fdd126fa9d2c94f9500ee9
15,1,"""","""","""","""","""",video-button-response,180,1421274,0.0-7.0-5.11,null,"[""Case16v_Stim.mp4""]",null,"""","""","""","""","""","2021-12-12 20:01:46",120.230.116.95,"Mozilla/5.0 (iPad; CPU OS 15_1 like Mac OS X) AppleWebKit/605.1.15 (KHTML, like Gecko) Mobile/15E148 MicroMessenger/8.0.15(0x18000f2e) NetType/WIFI Language/zh_CN",iPad,Mozilla,,iOS,15_1,aa87705f22fdd126fa9d2c94f9500ee9
15,1,"""","""","""","""","""",html-slider-response,181,1423817,0.0-7.0-6.11,"""","""","""","<p>Is <span style='color:green; font-weight: bold' >ball A</span> a cause of <b>ball E</b> going through the <span style='color:red; font-weight: bold' >goal</span>?</p>",Case16v_Stim.mp4,99,"""","""","2021-12-12 20:01:46",120.230.116.95,"Mozilla/5.0 (iPad; CPU OS 15_1 like Mac OS X) AppleWebKit/605.1.15 (KHTML, like Gecko) Mobile/15E148 MicroMessenger/8.0.15(0x18000f2e) NetType/WIFI Language/zh_CN",iPad,Mozilla,,iOS,15_1,aa87705f22fdd126fa9d2c94f9500ee9
15,1,"""","""","""","""","""",html-button-response,182,1425218,0.0-7.0-0.12,1398,"<div style=""max-width:1000px;""><img><img src=""Case10v.png"" width=""500"" height=""375""></img><p>If <span style='color:green; font-weight: bold' >ball A</span> had been removed, how likely would <b>ball E</b> have gone through the <span style='color:red; font-weight: bold' >goal</span>?</p><br /><br /></div>",0,"""","""","""","""","""","2021-12-12 20:01:46",120.230.116.95,"Mozilla/5.0 (iPad; CPU OS 15_1 like Mac OS X) AppleWebKit/605.1.15 (KHTML, like Gecko) Mobile/15E148 MicroMessenger/8.0.15(0x18000f2e) NetType/WIFI Language/zh_CN",iPad,Mozilla,,iOS,15_1,aa87705f22fdd126fa9d2c94f9500ee9
15,1,"""","""","""","""","""",video-button-response,183,1432800,0.0-7.0-1.12,7580,"[""Case10v_Stim.mp4""]",0,"""","""","""","""","""","2021-12-12 20:01:46",120.230.116.95,"Mozilla/5.0 (iPad; CPU OS 15_1 like Mac OS X) AppleWebKit/605.1.15 (KHTML, like Gecko) Mobile/15E148 MicroMessenger/8.0.15(0x18000f2e) NetType/WIFI Language/zh_CN",iPad,Mozilla,,iOS,15_1,aa87705f22fdd126fa9d2c94f9500ee9
15,1,"""","""","""","""","""",video-button-response,184,1439034,0.0-7.0-2.12,null,"[""Case10v_Stim.mp4""]",null,"""","""","""","""","""","2021-12-12 20:01:46",120.230.116.95,"Mozilla/5.0 (iPad; CPU OS 15_1 like Mac OS X) AppleWebKit/605.1.15 (KHTML, like Gecko) Mobile/15E148 MicroMessenger/8.0.15(0x18000f2e) NetType/WIFI Language/zh_CN",iPad,Mozilla,,iOS,15_1,aa87705f22fdd126fa9d2c94f9500ee9
15,1,"""","""","""","""","""",html-slider-response,185,1443669,0.0-7.0-3.12,"""","""","""","<p>If <span style='color:green; font-weight: bold' >ball A</span> had been removed, how likely would <b>ball E</b> have gone through the <span style='color:red; font-weight: bold' >goal</span>?</p>",Case10v_Stim.mp4,98,"""","""","2021-12-12 20:01:46",120.230.116.95,"Mozilla/5.0 (iPad; CPU OS 15_1 like Mac OS X) AppleWebKit/605.1.15 (KHTML, like Gecko) Mobile/15E148 MicroMessenger/8.0.15(0x18000f2e) NetType/WIFI Language/zh_CN",iPad,Mozilla,,iOS,15_1,aa87705f22fdd126fa9d2c94f9500ee9
15,1,"""","""","""","""","""",html-button-response,186,1445054,0.0-7.0-4.12,1377,"<div style=""max-width:1000px;""><img><img src=""Case10v.png"" width=""500"" height=""375""></img><p> Now watch the video one more time and answer:</p><p>Is <span style='color:green; font-weight: bold' >ball A</span> a cause of <b>ball E</b> going through the <span style='color:red; font-weight: bold' >goal</span>?</p><br /><br /></div>",0,"""","""","""","""","""","2021-12-12 20:01:46",120.230.116.95,"Mozilla/5.0 (iPad; CPU OS 15_1 like Mac OS X) AppleWebKit/605.1.15 (KHTML, like Gecko) Mobile/15E148 MicroMessenger/8.0.15(0x18000f2e) NetType/WIFI Language/zh_CN",iPad,Mozilla,,iOS,15_1,aa87705f22fdd126fa9d2c94f9500ee9
15,1,"""","""","""","""","""",video-button-response,187,1451303,0.0-7.0-5.12,null,"[""Case10v_Stim.mp4""]",null,"""","""","""","""","""","2021-12-12 20:01:46",120.230.116.95,"Mozilla/5.0 (iPad; CPU OS 15_1 like Mac OS X) AppleWebKit/605.1.15 (KHTML, like Gecko) Mobile/15E148 MicroMessenger/8.0.15(0x18000f2e) NetType/WIFI Language/zh_CN",iPad,Mozilla,,iOS,15_1,aa87705f22fdd126fa9d2c94f9500ee9
15,1,"""","""","""","""","""",html-slider-response,188,1453888,0.0-7.0-6.12,"""","""","""","<p>Is <span style='color:green; font-weight: bold' >ball A</span> a cause of <b>ball E</b> going through the <span style='color:red; font-weight: bold' >goal</span>?</p>",Case10v_Stim.mp4,0,"""","""","2021-12-12 20:01:46",120.230.116.95,"Mozilla/5.0 (iPad; CPU OS 15_1 like Mac OS X) AppleWebKit/605.1.15 (KHTML, like Gecko) Mobile/15E148 MicroMessenger/8.0.15(0x18000f2e) NetType/WIFI Language/zh_CN",iPad,Mozilla,,iOS,15_1,aa87705f22fdd126fa9d2c94f9500ee9
15,1,"""","""","""","""","""",html-button-response,189,1456774,0.0-7.0-0.13,2884,"<div style=""max-width:1000px;""><img><img src=""Case8v.png"" width=""500"" height=""375""></img><p>If <span style='color:green; font-weight: bold' >ball A</span> had been removed, how likely would <b>ball E</b> have gone through the <span style='color:red; font-weight: bold' >goal</span>?</p><br /><br /></div>",0,"""","""","""","""","""","2021-12-12 20:01:46",120.230.116.95,"Mozilla/5.0 (iPad; CPU OS 15_1 like Mac OS X) AppleWebKit/605.1.15 (KHTML, like Gecko) Mobile/15E148 MicroMessenger/8.0.15(0x18000f2e) NetType/WIFI Language/zh_CN",iPad,Mozilla,,iOS,15_1,aa87705f22fdd126fa9d2c94f9500ee9
15,1,"""","""","""","""","""",video-button-response,190,1464122,0.0-7.0-1.13,7340,"[""Case8v_Stim.mp4""]",0,"""","""","""","""","""","2021-12-12 20:01:46",120.230.116.95,"Mozilla/5.0 (iPad; CPU OS 15_1 like Mac OS X) AppleWebKit/605.1.15 (KHTML, like Gecko) Mobile/15E148 MicroMessenger/8.0.15(0x18000f2e) NetType/WIFI Language/zh_CN",iPad,Mozilla,,iOS,15_1,aa87705f22fdd126fa9d2c94f9500ee9
15,1,"""","""","""","""","""",video-button-response,191,1470367,0.0-7.0-2.13,null,"[""Case8v_Stim.mp4""]",null,"""","""","""","""","""","2021-12-12 20:01:46",120.230.116.95,"Mozilla/5.0 (iPad; CPU OS 15_1 like Mac OS X) AppleWebKit/605.1.15 (KHTML, like Gecko) Mobile/15E148 MicroMessenger/8.0.15(0x18000f2e) NetType/WIFI Language/zh_CN",iPad,Mozilla,,iOS,15_1,aa87705f22fdd126fa9d2c94f9500ee9
