[
	{
		"success": true,
		"timeout": false,
		"failed_images": [],
		"failed_audio": [],
		"failed_video": [],
		"trial_type": "preload",
		"trial_index": 0,
		"time_elapsed": 8011,
		"internal_node_id": "0.0-0.0"
	},
	{
		"success": true,
		"trial_type": "fullscreen",
		"trial_index": 1,
		"time_elapsed": 9787,
		"internal_node_id": "0.0-1.0"
	},
	{
		"rt": 19422.70000000298,
		"stimulus": "<div style=\"max-width:800px;\"><img><img src=\"stim/inst.png\" width=\"500\" height=\"375\"></img><p>In this experiment, you will answer questions about video clips showing moving billard balls.</p><p>The setting involves three balls labeled \"Ball A\", \"Ball B\", and \"Ball E\" correspondingly, and a red goal with goal posts as shown above.</p><p>Sometimes the goal is on the left side, and sometimes it's on the right side.</p></div>",
		"response": 0,
		"trial_type": "html-button-response",
		"trial_index": 2,
		"time_elapsed": 29212,
		"internal_node_id": "0.0-2.0-0.0-0.0"
	},
	{
		"rt": 15661.59999999404,
		"stimulus": "<div style=\"max-width:800px;\"><img><img src=\"stim/inst.png\" width=\"500\" height=\"375\"></img><p>At some point the video clip will pause, and you will be asked to predict what will happen next. We won't give you feedback as to whether your prediction was right or wrong.</p><p>Notice that there is <b>no friction</b> in this setting. This means that balls don't slow down over time.</p><p>Click on the play button to play this video.</p></div>",
		"response": 0,
		"trial_type": "html-button-response",
		"trial_index": 3,
		"time_elapsed": 44876,
		"internal_node_id": "0.0-2.0-0.0-1.0"
	},
	{
		"rt": 8547.09999999404,
		"stimulus": [
			"stim/instruction.mp4"
		],
		"response": 0,
		"trial_type": "video-button-response",
		"trial_index": 4,
		"time_elapsed": 53426,
		"internal_node_id": "0.0-2.0-0.0-2.0"
	},
	{
		"rt": null,
		"stimulus": [
			"stim/instruction.mp4"
		],
		"response": null,
		"trial_type": "video-button-response",
		"trial_index": 5,
		"time_elapsed": 59513,
		"internal_node_id": "0.0-2.0-0.0-3.0"
	},
	{
		"statement": "<p>Is <span style='color:green; font-weight: bold' >ball A</span> a cause of <b>ball E</b> going through the <span style='color:red; font-weight: bold' >goal</span>?</p>",
		"case": "instruction",
		"responses": "Yes",
		"trial_type": "html-button-response-data",
		"trial_index": 6,
		"time_elapsed": 62225,
		"internal_node_id": "0.0-2.0-0.0-4.0"
	},
	{
		"rt": 18567.79999999702,
		"stimulus": "<div style=\"max-width:800px;\"><img src=\"stim/inst.png\" width=\"500\" height=\"375\"></img><p>You will now watch the video clip three more times and answer the following comprehension questions:</p><p>If <span style='color:green; font-weight: bold' >ball A</span> is removed, will <b>ball E</b> have gone through the gate?</p><p>If <span style='color:blue; font-weight: bold' >ball B</span> is removed, will <b>ball E</b> have gone through the gate?</p></div>",
		"response": 0,
		"trial_type": "html-button-response",
		"trial_index": 7,
		"time_elapsed": 80794,
		"internal_node_id": "0.0-2.0-0.0-5.0"
	},
	{
		"rt": 6694,
		"stimulus": [
			"stim/instruction.mp4"
		],
		"response": 0,
		"trial_type": "video-button-response",
		"trial_index": 8,
		"time_elapsed": 87491,
		"internal_node_id": "0.0-2.0-0.0-6.0"
	},
	{
		"rt": 6604.79999999702,
		"stimulus": [
			"stim/instruction.mp4"
		],
		"response": 0,
		"trial_type": "video-button-response",
		"trial_index": 9,
		"time_elapsed": 94097,
		"internal_node_id": "0.0-2.0-0.0-7.0"
	},
	{
		"rt": null,
		"stimulus": [
			"stim/instruction.mp4"
		],
		"response": null,
		"trial_type": "video-button-response",
		"trial_index": 10,
		"time_elapsed": 100191,
		"internal_node_id": "0.0-2.0-0.0-8.0"
	},
	{
		"responses": "{\"ballA\":\"Yes\",\"ballB\":\"No\",\"friction\":\"Yes\"}",
		"question_order": "[0,1,2]",
		"trial_type": "survey-multi-choice",
		"trial_index": 11,
		"time_elapsed": 111972,
		"internal_node_id": "0.0-2.0-1.0",
		"correct": false
	},
	{
		"rt": 3746.2999999970198,
		"stimulus": "Unfortunately, you missed some of the comprehension questions.</p> <p>Please review the instructions again.",
		"response": 0,
		"trial_type": "html-button-response",
		"trial_index": 12,
		"time_elapsed": 115721,
		"internal_node_id": "0.0-2.0-2.0-0.0"
	},
	{
		"rt": 992.2999999970198,
		"stimulus": "<div style=\"max-width:800px;\"><img><img src=\"stim/inst.png\" width=\"500\" height=\"375\"></img><p>In this experiment, you will answer questions about video clips showing moving billard balls.</p><p>The setting involves three balls labeled \"Ball A\", \"Ball B\", and \"Ball E\" correspondingly, and a red goal with goal posts as shown above.</p><p>Sometimes the goal is on the left side, and sometimes it's on the right side.</p></div>",
		"response": 0,
		"trial_type": "html-button-response",
		"trial_index": 13,
		"time_elapsed": 116716,
		"internal_node_id": "0.0-2.1-0.1-0.1"
	},
	{
		"rt": 529,
		"stimulus": "<div style=\"max-width:800px;\"><img><img src=\"stim/inst.png\" width=\"500\" height=\"375\"></img><p>At some point the video clip will pause, and you will be asked to predict what will happen next. We won't give you feedback as to whether your prediction was right or wrong.</p><p>Notice that there is <b>no friction</b> in this setting. This means that balls don't slow down over time.</p><p>Click on the play button to play this video.</p></div>",
		"response": 0,
		"trial_type": "html-button-response",
		"trial_index": 14,
		"time_elapsed": 117247,
		"internal_node_id": "0.0-2.1-0.1-1.1"
	},
	{
		"rt": 6585.29999999702,
		"stimulus": [
			"stim/instruction.mp4"
		],
		"response": 0,
		"trial_type": "video-button-response",
		"trial_index": 15,
		"time_elapsed": 123835,
		"internal_node_id": "0.0-2.1-0.1-2.1"
	},
	{
		"rt": null,
		"stimulus": [
			"stim/instruction.mp4"
		],
		"response": null,
		"trial_type": "video-button-response",
		"trial_index": 16,
		"time_elapsed": 129919,
		"internal_node_id": "0.0-2.1-0.1-3.1"
	},
	{
		"statement": "<p>Is <span style='color:green; font-weight: bold' >ball A</span> a cause of <b>ball E</b> going through the <span style='color:red; font-weight: bold' >goal</span>?</p>",
		"case": "instruction",
		"responses": "Yes",
		"trial_type": "html-button-response-data",
		"trial_index": 17,
		"time_elapsed": 133846,
		"internal_node_id": "0.0-2.1-0.1-4.1"
	},
	{
		"rt": 962.5,
		"stimulus": "<div style=\"max-width:800px;\"><img src=\"stim/inst.png\" width=\"500\" height=\"375\"></img><p>You will now watch the video clip three more times and answer the following comprehension questions:</p><p>If <span style='color:green; font-weight: bold' >ball A</span> is removed, will <b>ball E</b> have gone through the gate?</p><p>If <span style='color:blue; font-weight: bold' >ball B</span> is removed, will <b>ball E</b> have gone through the gate?</p></div>",
		"response": 0,
		"trial_type": "html-button-response",
		"trial_index": 18,
		"time_elapsed": 134810,
		"internal_node_id": "0.0-2.1-0.1-5.1"
	},
	{
		"rt": 6442.699999988079,
		"stimulus": [
			"stim/instruction.mp4"
		],
		"response": 0,
		"trial_type": "video-button-response",
		"trial_index": 19,
		"time_elapsed": 141256,
		"internal_node_id": "0.0-2.1-0.1-6.1"
	},
	{
		"rt": 6509.600000008941,
		"stimulus": [
			"stim/instruction.mp4"
		],
		"response": 0,
		"trial_type": "video-button-response",
		"trial_index": 20,
		"time_elapsed": 147768,
		"internal_node_id": "0.0-2.1-0.1-7.1"
	},
	{
		"rt": null,
		"stimulus": [
			"stim/instruction.mp4"
		],
		"response": null,
		"trial_type": "video-button-response",
		"trial_index": 21,
		"time_elapsed": 153843,
		"internal_node_id": "0.0-2.1-0.1-8.1"
	},
	{
		"responses": "{\"ballA\":\"No\",\"ballB\":\"Yes\",\"friction\":\"No\"}",
		"question_order": "[0,1,2]",
		"trial_type": "survey-multi-choice",
		"trial_index": 22,
		"time_elapsed": 163000,
		"internal_node_id": "0.0-2.1-1.1",
		"correct": true
	},
	{
		"rt": 2011.5999999940395,
		"stimulus": "<div style=max-width:800px;><p> Correct! You will now begin the actual experiment.</p><p> This experiment will be divided into two blocks, and will take about 15-20 minutes to complete(including break).</p><p> There will be a 5-minute break between the two blocks, and you may not start the second block before the 5 minutes break expires.</p><p> You can do anything during the break, and do not have to come back exactly after 5 minutes (you can come back anytime after 5 minutes).</p><p>Click the start button whenever you are ready.</p> </div>",
		"response": 0,
		"trial_type": "html-button-response",
		"trial_index": 23,
		"time_elapsed": 165015,
		"internal_node_id": "0.0-3.0"
	},
	{
		"rt": 4448.300000011921,
		"stimulus": "<div style=\"max-width:1000px;\"><br /><br /><br /><br /><br /><p> In this part of the experiment, you will be asked to answer this question:</p><br /><p>Is <span style='color:green; font-weight: bold' >ball A</span> a cause of <b>ball E</b> going through the <span style='color:red; font-weight: bold' >goal</span>?</p><br /><br /></div>",
		"response": 0,
		"trial_type": "html-button-response",
		"trial_index": 24,
		"time_elapsed": 169465,
		"internal_node_id": "0.0-4.0"
	},
	{
		"rt": 1707.9000000059605,
		"stimulus": "<div style=\"max-width:1000px;\"><img><img src=\"stim/Case12.png\" width=\"500\" height=\"375\"></img><p>Is <span style='color:green; font-weight: bold' >ball A</span> a cause of <b>ball E</b> going through the <span style='color:red; font-weight: bold' >goal</span>?</p><br /><br /></div>",
		"response": 0,
		"trial_type": "html-button-response",
		"trial_index": 25,
		"time_elapsed": 171175,
		"internal_node_id": "0.0-5.0-0.0"
	},
	{
		"rt": 6592.0999999940395,
		"stimulus": [
			"stim/Case12_Stim.mp4"
		],
		"response": 0,
		"trial_type": "video-button-response",
		"trial_index": 26,
		"time_elapsed": 177770,
		"internal_node_id": "0.0-5.0-1.0"
	},
	{
		"rt": null,
		"stimulus": [
			"stim/Case12_Stim.mp4"
		],
		"response": null,
		"trial_type": "video-button-response",
		"trial_index": 27,
		"time_elapsed": 183855,
		"internal_node_id": "0.0-5.0-2.0"
	},
	{
		"statement": "<p>Is <span style='color:green; font-weight: bold' >ball A</span> a cause of <b>ball E</b> going through the <span style='color:red; font-weight: bold' >goal</span>?</p>",
		"case": "instruction",
		"responses": "Yes",
		"trial_type": "html-button-response-data",
		"trial_index": 28,
		"time_elapsed": 184844,
		"internal_node_id": "0.0-5.0-3.0"
	},
	{
		"rt": 1571.7999999970198,
		"stimulus": "<div style=\"max-width:1000px;\"><img><img src=\"stim/Case4.png\" width=\"500\" height=\"375\"></img><p>Is <span style='color:green; font-weight: bold' >ball A</span> a cause of <b>ball E</b> going through the <span style='color:red; font-weight: bold' >goal</span>?</p><br /><br /></div>",
		"response": 0,
		"trial_type": "html-button-response",
		"trial_index": 29,
		"time_elapsed": 186418,
		"internal_node_id": "0.0-5.0-0.1"
	},
	{
		"rt": 8976.29999999702,
		"stimulus": [
			"stim/Case4_Stim.mp4"
		],
		"response": 0,
		"trial_type": "video-button-response",
		"trial_index": 30,
		"time_elapsed": 195397,
		"internal_node_id": "0.0-5.0-1.1"
	},
	{
		"rt": null,
		"stimulus": [
			"stim/Case4_Stim.mp4"
		],
		"response": null,
		"trial_type": "video-button-response",
		"trial_index": 31,
		"time_elapsed": 201487,
		"internal_node_id": "0.0-5.0-2.1"
	},
	{
		"statement": "<p>Is <span style='color:green; font-weight: bold' >ball A</span> a cause of <b>ball E</b> going through the <span style='color:red; font-weight: bold' >goal</span>?</p>",
		"case": "instruction",
		"responses": "Yes",
		"trial_type": "html-button-response-data",
		"trial_index": 32,
		"time_elapsed": 205365,
		"internal_node_id": "0.0-5.0-3.1"
	},
	{
		"rt": 1058.2999999970198,
		"stimulus": "<div style=\"max-width:1000px;\"><img><img src=\"stim/Case5.png\" width=\"500\" height=\"375\"></img><p>Is <span style='color:green; font-weight: bold' >ball A</span> a cause of <b>ball E</b> going through the <span style='color:red; font-weight: bold' >goal</span>?</p><br /><br /></div>",
		"response": 0,
		"trial_type": "html-button-response",
		"trial_index": 33,
		"time_elapsed": 206425,
		"internal_node_id": "0.0-5.0-0.2"
	},
	{
		"rt": 6838.4000000059605,
		"stimulus": [
			"stim/Case5_Stim.mp4"
		],
		"response": 0,
		"trial_type": "video-button-response",
		"trial_index": 34,
		"time_elapsed": 213267,
		"internal_node_id": "0.0-5.0-1.2"
	},
	{
		"rt": null,
		"stimulus": [
			"stim/Case5_Stim.mp4"
		],
		"response": null,
		"trial_type": "video-button-response",
		"trial_index": 35,
		"time_elapsed": 219353,
		"internal_node_id": "0.0-5.0-2.2"
	},
	{
		"statement": "<p>Is <span style='color:green; font-weight: bold' >ball A</span> a cause of <b>ball E</b> going through the <span style='color:red; font-weight: bold' >goal</span>?</p>",
		"case": "instruction",
		"responses": "Yes",
		"trial_type": "html-button-response-data",
		"trial_index": 36,
		"time_elapsed": 221008,
		"internal_node_id": "0.0-5.0-3.2"
	},
	{
		"rt": 6575.0999999940395,
		"stimulus": "<div style=\"max-width:1000px;\"><img><img src=\"stim/Case13.png\" width=\"500\" height=\"375\"></img><p>Is <span style='color:green; font-weight: bold' >ball A</span> a cause of <b>ball E</b> going through the <span style='color:red; font-weight: bold' >goal</span>?</p><br /><br /></div>",
		"response": 0,
		"trial_type": "html-button-response",
		"trial_index": 37,
		"time_elapsed": 227585,
		"internal_node_id": "0.0-5.0-0.3"
	},
	{
		"rt": 7065.20000000298,
		"stimulus": [
			"stim/Case13_Stim.mp4"
		],
		"response": 0,
		"trial_type": "video-button-response",
		"trial_index": 38,
		"time_elapsed": 234654,
		"internal_node_id": "0.0-5.0-1.3"
	},
	{
		"rt": null,
		"stimulus": [
			"stim/Case13_Stim.mp4"
		],
		"response": null,
		"trial_type": "video-button-response",
		"trial_index": 39,
		"time_elapsed": 243919,
		"internal_node_id": "0.0-5.0-2.3"
	},
	{
		"statement": "<p>Is <span style='color:green; font-weight: bold' >ball A</span> a cause of <b>ball E</b> going through the <span style='color:red; font-weight: bold' >goal</span>?</p>",
		"case": "instruction",
		"responses": "No",
		"trial_type": "html-button-response-data",
		"trial_index": 40,
		"time_elapsed": 244601,
		"internal_node_id": "0.0-5.0-3.3"
	},
	{
		"rt": 891.5,
		"stimulus": "<div style=\"max-width:1000px;\"><img><img src=\"stim/Case9.png\" width=\"500\" height=\"375\"></img><p>Is <span style='color:green; font-weight: bold' >ball A</span> a cause of <b>ball E</b> going through the <span style='color:red; font-weight: bold' >goal</span>?</p><br /><br /></div>",
		"response": 0,
		"trial_type": "html-button-response",
		"trial_index": 41,
		"time_elapsed": 245495,
		"internal_node_id": "0.0-5.0-0.4"
	},
	{
		"rt": 7092.399999991059,
		"stimulus": [
			"stim/Case9_Stim.mp4"
		],
		"response": 0,
		"trial_type": "video-button-response",
		"trial_index": 42,
		"time_elapsed": 252590,
		"internal_node_id": "0.0-5.0-1.4"
	},
	{
		"rt": null,
		"stimulus": [
			"stim/Case9_Stim.mp4"
		],
		"response": null,
		"trial_type": "video-button-response",
		"trial_index": 43,
		"time_elapsed": 258691,
		"internal_node_id": "0.0-5.0-2.4"
	},
	{
		"statement": "<p>Is <span style='color:green; font-weight: bold' >ball A</span> a cause of <b>ball E</b> going through the <span style='color:red; font-weight: bold' >goal</span>?</p>",
		"case": "instruction",
		"responses": "Yes",
		"trial_type": "html-button-response-data",
		"trial_index": 44,
		"time_elapsed": 259275,
		"internal_node_id": "0.0-5.0-3.4"
	},
	{
		"rt": 907,
		"stimulus": "<div style=\"max-width:1000px;\"><img><img src=\"stim/Case8.png\" width=\"500\" height=\"375\"></img><p>Is <span style='color:green; font-weight: bold' >ball A</span> a cause of <b>ball E</b> going through the <span style='color:red; font-weight: bold' >goal</span>?</p><br /><br /></div>",
		"response": 0,
		"trial_type": "html-button-response",
		"trial_index": 45,
		"time_elapsed": 260183,
		"internal_node_id": "0.0-5.0-0.5"
	},
	{
		"rt": 6635.100000008941,
		"stimulus": [
			"stim/Case8_Stim.mp4"
		],
		"response": 0,
		"trial_type": "video-button-response",
		"trial_index": 46,
		"time_elapsed": 266823,
		"internal_node_id": "0.0-5.0-1.5"
	},
	{
		"rt": null,
		"stimulus": [
			"stim/Case8_Stim.mp4"
		],
		"response": null,
		"trial_type": "video-button-response",
		"trial_index": 47,
		"time_elapsed": 272937,
		"internal_node_id": "0.0-5.0-2.5"
	},
	{
		"statement": "<p>Is <span style='color:green; font-weight: bold' >ball A</span> a cause of <b>ball E</b> going through the <span style='color:red; font-weight: bold' >goal</span>?</p>",
		"case": "instruction",
		"responses": "Yes",
		"trial_type": "html-button-response-data",
		"trial_index": 48,
		"time_elapsed": 274448,
		"internal_node_id": "0.0-5.0-3.5"
	},
	{
		"rt": 1129.699999988079,
		"stimulus": "<div style=\"max-width:1000px;\"><img><img src=\"stim/Case10.png\" width=\"500\" height=\"375\"></img><p>Is <span style='color:green; font-weight: bold' >ball A</span> a cause of <b>ball E</b> going through the <span style='color:red; font-weight: bold' >goal</span>?</p><br /><br /></div>",
		"response": 0,
		"trial_type": "html-button-response",
		"trial_index": 49,
		"time_elapsed": 275580,
		"internal_node_id": "0.0-5.0-0.6"
	},
	{
		"rt": 6849.20000000298,
		"stimulus": [
			"stim/Case10_Stim.mp4"
		],
		"response": 0,
		"trial_type": "video-button-response",
		"trial_index": 50,
		"time_elapsed": 282435,
		"internal_node_id": "0.0-5.0-1.6"
	},
	{
		"rt": null,
		"stimulus": [
			"stim/Case10_Stim.mp4"
		],
		"response": null,
		"trial_type": "video-button-response",
		"trial_index": 51,
		"time_elapsed": 288519,
		"internal_node_id": "0.0-5.0-2.6"
	},
	{
		"statement": "<p>Is <span style='color:green; font-weight: bold' >ball A</span> a cause of <b>ball E</b> going through the <span style='color:red; font-weight: bold' >goal</span>?</p>",
		"case": "instruction",
		"responses": "Yes",
		"trial_type": "html-button-response-data",
		"trial_index": 52,
		"time_elapsed": 289174,
		"internal_node_id": "0.0-5.0-3.6"
	},
	{
		"rt": 838.7999999970198,
		"stimulus": "<div style=\"max-width:1000px;\"><img><img src=\"stim/Case17.png\" width=\"500\" height=\"375\"></img><p>Is <span style='color:green; font-weight: bold' >ball A</span> a cause of <b>ball E</b> going through the <span style='color:red; font-weight: bold' >goal</span>?</p><br /><br /></div>",
		"response": 0,
		"trial_type": "html-button-response",
		"trial_index": 53,
		"time_elapsed": 290015,
		"internal_node_id": "0.0-5.0-0.7"
	},
	{
		"rt": 6923.29999999702,
		"stimulus": [
			"stim/Case17_Stim.mp4"
		],
		"response": 0,
		"trial_type": "video-button-response",
		"trial_index": 54,
		"time_elapsed": 296943,
		"internal_node_id": "0.0-5.0-1.7"
	},
	{
		"rt": null,
		"stimulus": [
			"stim/Case17_Stim.mp4"
		],
		"response": null,
		"trial_type": "video-button-response",
		"trial_index": 55,
		"time_elapsed": 303046,
		"internal_node_id": "0.0-5.0-2.7"
	},
	{
		"statement": "<p>Is <span style='color:green; font-weight: bold' >ball A</span> a cause of <b>ball E</b> going through the <span style='color:red; font-weight: bold' >goal</span>?</p>",
		"case": "instruction",
		"responses": "No",
		"trial_type": "html-button-response-data",
		"trial_index": 56,
		"time_elapsed": 303692,
		"internal_node_id": "0.0-5.0-3.7"
	},
	{
		"rt": 765.0999999940395,
		"stimulus": "<div style=\"max-width:1000px;\"><img><img src=\"stim/Case11.png\" width=\"500\" height=\"375\"></img><p>Is <span style='color:green; font-weight: bold' >ball A</span> a cause of <b>ball E</b> going through the <span style='color:red; font-weight: bold' >goal</span>?</p><br /><br /></div>",
		"response": 0,
		"trial_type": "html-button-response",
		"trial_index": 57,
		"time_elapsed": 304459,
		"internal_node_id": "0.0-5.0-0.8"
	},
	{
		"rt": 6620.79999999702,
		"stimulus": [
			"stim/Case11_Stim.mp4"
		],
		"response": 0,
		"trial_type": "video-button-response",
		"trial_index": 58,
		"time_elapsed": 311085,
		"internal_node_id": "0.0-5.0-1.8"
	},
	{
		"rt": null,
		"stimulus": [
			"stim/Case11_Stim.mp4"
		],
		"response": null,
		"trial_type": "video-button-response",
		"trial_index": 59,
		"time_elapsed": 317162,
		"internal_node_id": "0.0-5.0-2.8"
	},
	{
		"statement": "<p>Is <span style='color:green; font-weight: bold' >ball A</span> a cause of <b>ball E</b> going through the <span style='color:red; font-weight: bold' >goal</span>?</p>",
		"case": "instruction",
		"responses": "Yes",
		"trial_type": "html-button-response-data",
		"trial_index": 60,
		"time_elapsed": 318377,
		"internal_node_id": "0.0-5.0-3.8"
	},
	{
		"rt": 771.3999999910593,
		"stimulus": "<div style=\"max-width:1000px;\"><img><img src=\"stim/Case14.png\" width=\"500\" height=\"375\"></img><p>Is <span style='color:green; font-weight: bold' >ball A</span> a cause of <b>ball E</b> going through the <span style='color:red; font-weight: bold' >goal</span>?</p><br /><br /></div>",
		"response": 0,
		"trial_type": "html-button-response",
		"trial_index": 61,
		"time_elapsed": 319150,
		"internal_node_id": "0.0-5.0-0.9"
	},
	{
		"rt": 6440.9000000059605,
		"stimulus": [
			"stim/Case14_Stim.mp4"
		],
		"response": 0,
		"trial_type": "video-button-response",
		"trial_index": 62,
		"time_elapsed": 325595,
		"internal_node_id": "0.0-5.0-1.9"
	},
	{
		"rt": null,
		"stimulus": [
			"stim/Case14_Stim.mp4"
		],
		"response": null,
		"trial_type": "video-button-response",
		"trial_index": 63,
		"time_elapsed": 331679,
		"internal_node_id": "0.0-5.0-2.9"
	},
	{
		"statement": "<p>Is <span style='color:green; font-weight: bold' >ball A</span> a cause of <b>ball E</b> going through the <span style='color:red; font-weight: bold' >goal</span>?</p>",
		"case": "instruction",
		"responses": "No",
		"trial_type": "html-button-response-data",
		"trial_index": 64,
		"time_elapsed": 332172,
		"internal_node_id": "0.0-5.0-3.9"
	},
	{
		"rt": 596.3999999910593,
		"stimulus": "<div style=\"max-width:1000px;\"><img><img src=\"stim/Case16.png\" width=\"500\" height=\"375\"></img><p>Is <span style='color:green; font-weight: bold' >ball A</span> a cause of <b>ball E</b> going through the <span style='color:red; font-weight: bold' >goal</span>?</p><br /><br /></div>",
		"response": 0,
		"trial_type": "html-button-response",
		"trial_index": 65,
		"time_elapsed": 332770,
		"internal_node_id": "0.0-5.0-0.10"
	},
	{
		"rt": 6936,
		"stimulus": [
			"stim/Case16_Stim.mp4"
		],
		"response": 0,
		"trial_type": "video-button-response",
		"trial_index": 66,
		"time_elapsed": 339711,
		"internal_node_id": "0.0-5.0-1.10"
	},
	{
		"rt": null,
		"stimulus": [
			"stim/Case16_Stim.mp4"
		],
		"response": null,
		"trial_type": "video-button-response",
		"trial_index": 67,
		"time_elapsed": 345785,
		"internal_node_id": "0.0-5.0-2.10"
	},
	{
		"statement": "<p>Is <span style='color:green; font-weight: bold' >ball A</span> a cause of <b>ball E</b> going through the <span style='color:red; font-weight: bold' >goal</span>?</p>",
		"case": "instruction",
		"responses": "No",
		"trial_type": "html-button-response-data",
		"trial_index": 68,
		"time_elapsed": 346191,
		"internal_node_id": "0.0-5.0-3.10"
	},
	{
		"rt": 9579.40000000596,
		"stimulus": "<div style=\"max-width:1000px;\"><img><img src=\"stim/Case0.png\" width=\"500\" height=\"375\"></img><p>Is <span style='color:green; font-weight: bold' >ball A</span> a cause of <b>ball E</b> going through the <span style='color:red; font-weight: bold' >goal</span>?</p><br /><br /></div>",
		"response": 0,
		"trial_type": "html-button-response",
		"trial_index": 69,
		"time_elapsed": 355772,
		"internal_node_id": "0.0-5.0-0.11"
	},
	{
		"rt": 11537.70000000298,
		"stimulus": [
			"stim/Case0_Stim.mp4"
		],
		"response": 0,
		"trial_type": "video-button-response",
		"trial_index": 70,
		"time_elapsed": 367314,
		"internal_node_id": "0.0-5.0-1.11"
	},
	{
		"rt": null,
		"stimulus": [
			"stim/Case0_Stim.mp4"
		],
		"response": null,
		"trial_type": "video-button-response",
		"trial_index": 71,
		"time_elapsed": 373403,
		"internal_node_id": "0.0-5.0-2.11"
	},
	{
		"statement": "<p>Is <span style='color:green; font-weight: bold' >ball A</span> a cause of <b>ball E</b> going through the <span style='color:red; font-weight: bold' >goal</span>?</p>",
		"case": "instruction",
		"responses": "Yes",
		"trial_type": "html-button-response-data",
		"trial_index": 72,
		"time_elapsed": 374218,
		"internal_node_id": "0.0-5.0-3.11"
	},
	{
		"rt": 1032.0999999940395,
		"stimulus": "<div style=\"max-width:1000px;\"><img><img src=\"stim/Case1.png\" width=\"500\" height=\"375\"></img><p>Is <span style='color:green; font-weight: bold' >ball A</span> a cause of <b>ball E</b> going through the <span style='color:red; font-weight: bold' >goal</span>?</p><br /><br /></div>",
		"response": 0,
		"trial_type": "html-button-response",
		"trial_index": 73,
		"time_elapsed": 375252,
		"internal_node_id": "0.0-5.0-0.12"
	},
	{
		"rt": 6637.9000000059605,
		"stimulus": [
			"stim/Case1_Stim.mp4"
		],
		"response": 0,
		"trial_type": "video-button-response",
		"trial_index": 74,
		"time_elapsed": 381894,
		"internal_node_id": "0.0-5.0-1.12"
	},
	{
		"rt": null,
		"stimulus": [
			"stim/Case1_Stim.mp4"
		],
		"response": null,
		"trial_type": "video-button-response",
		"trial_index": 75,
		"time_elapsed": 387994,
		"internal_node_id": "0.0-5.0-2.12"
	},
	{
		"statement": "<p>Is <span style='color:green; font-weight: bold' >ball A</span> a cause of <b>ball E</b> going through the <span style='color:red; font-weight: bold' >goal</span>?</p>",
		"case": "instruction",
		"responses": "Yes",
		"trial_type": "html-button-response-data",
		"trial_index": 76,
		"time_elapsed": 388785,
		"internal_node_id": "0.0-5.0-3.12"
	},
	{
		"rt": 684,
		"stimulus": "<div style=\"max-width:1000px;\"><img><img src=\"stim/Case2.png\" width=\"500\" height=\"375\"></img><p>Is <span style='color:green; font-weight: bold' >ball A</span> a cause of <b>ball E</b> going through the <span style='color:red; font-weight: bold' >goal</span>?</p><br /><br /></div>",
		"response": 0,
		"trial_type": "html-button-response",
		"trial_index": 77,
		"time_elapsed": 389472,
		"internal_node_id": "0.0-5.0-0.13"
	},
	{
		"rt": 6578.0999999940395,
		"stimulus": [
			"stim/Case2_Stim.mp4"
		],
		"response": 0,
		"trial_type": "video-button-response",
		"trial_index": 78,
		"time_elapsed": 396055,
		"internal_node_id": "0.0-5.0-1.13"
	},
	{
		"rt": null,
		"stimulus": [
			"stim/Case2_Stim.mp4"
		],
		"response": null,
		"trial_type": "video-button-response",
		"trial_index": 79,
		"time_elapsed": 402152,
		"internal_node_id": "0.0-5.0-2.13"
	},
	{
		"statement": "<p>Is <span style='color:green; font-weight: bold' >ball A</span> a cause of <b>ball E</b> going through the <span style='color:red; font-weight: bold' >goal</span>?</p>",
		"case": "instruction",
		"responses": "Yes",
		"trial_type": "html-button-response-data",
		"trial_index": 80,
		"time_elapsed": 402667,
		"internal_node_id": "0.0-5.0-3.13"
	},
	{
		"rt": 898,
		"stimulus": "<div style=\"max-width:1000px;\"><img><img src=\"stim/Case6.png\" width=\"500\" height=\"375\"></img><p>Is <span style='color:green; font-weight: bold' >ball A</span> a cause of <b>ball E</b> going through the <span style='color:red; font-weight: bold' >goal</span>?</p><br /><br /></div>",
		"response": 0,
		"trial_type": "html-button-response",
		"trial_index": 81,
		"time_elapsed": 403567,
		"internal_node_id": "0.0-5.0-0.14"
	},
	{
		"rt": 6708.20000000298,
		"stimulus": [
			"stim/Case6_Stim.mp4"
		],
		"response": 0,
		"trial_type": "video-button-response",
		"trial_index": 82,
		"time_elapsed": 410278,
		"internal_node_id": "0.0-5.0-1.14"
	},
	{
		"rt": null,
		"stimulus": [
			"stim/Case6_Stim.mp4"
		],
		"response": null,
		"trial_type": "video-button-response",
		"trial_index": 83,
		"time_elapsed": 416353,
		"internal_node_id": "0.0-5.0-2.14"
	},
	{
		"statement": "<p>Is <span style='color:green; font-weight: bold' >ball A</span> a cause of <b>ball E</b> going through the <span style='color:red; font-weight: bold' >goal</span>?</p>",
		"case": "instruction",
		"responses": "Yes",
		"trial_type": "html-button-response-data",
		"trial_index": 84,
		"time_elapsed": 417478,
		"internal_node_id": "0.0-5.0-3.14"
	},
	{
		"rt": 1251.5,
		"stimulus": "<div style=\"max-width:1000px;\"><img><img src=\"stim/Case15.png\" width=\"500\" height=\"375\"></img><p>Is <span style='color:green; font-weight: bold' >ball A</span> a cause of <b>ball E</b> going through the <span style='color:red; font-weight: bold' >goal</span>?</p><br /><br /></div>",
		"response": 0,
		"trial_type": "html-button-response",
		"trial_index": 85,
		"time_elapsed": 418731,
		"internal_node_id": "0.0-5.0-0.15"
	},
	{
		"rt": 6623.4000000059605,
		"stimulus": [
			"stim/Case15_Stim.mp4"
		],
		"response": 0,
		"trial_type": "video-button-response",
		"trial_index": 86,
		"time_elapsed": 425358,
		"internal_node_id": "0.0-5.0-1.15"
	},
	{
		"rt": null,
		"stimulus": [
			"stim/Case15_Stim.mp4"
		],
		"response": null,
		"trial_type": "video-button-response",
		"trial_index": 87,
		"time_elapsed": 431435,
		"internal_node_id": "0.0-5.0-2.15"
	},
	{
		"statement": "<p>Is <span style='color:green; font-weight: bold' >ball A</span> a cause of <b>ball E</b> going through the <span style='color:red; font-weight: bold' >goal</span>?</p>",
		"case": "instruction",
		"responses": "No",
		"trial_type": "html-button-response-data",
		"trial_index": 88,
		"time_elapsed": 431827,
		"internal_node_id": "0.0-5.0-3.15"
	},
	{
		"rt": 1130.1000000089407,
		"stimulus": "<div style=\"max-width:1000px;\"><img><img src=\"stim/Case7.png\" width=\"500\" height=\"375\"></img><p>Is <span style='color:green; font-weight: bold' >ball A</span> a cause of <b>ball E</b> going through the <span style='color:red; font-weight: bold' >goal</span>?</p><br /><br /></div>",
		"response": 0,
		"trial_type": "html-button-response",
		"trial_index": 89,
		"time_elapsed": 432958,
		"internal_node_id": "0.0-5.0-0.16"
	},
	{
		"rt": 6782.9000000059605,
		"stimulus": [
			"stim/Case7_Stim.mp4"
		],
		"response": 0,
		"trial_type": "video-button-response",
		"trial_index": 90,
		"time_elapsed": 439745,
		"internal_node_id": "0.0-5.0-1.16"
	},
	{
		"rt": null,
		"stimulus": [
			"stim/Case7_Stim.mp4"
		],
		"response": null,
		"trial_type": "video-button-response",
		"trial_index": 91,
		"time_elapsed": 445837,
		"internal_node_id": "0.0-5.0-2.16"
	},
	{
		"statement": "<p>Is <span style='color:green; font-weight: bold' >ball A</span> a cause of <b>ball E</b> going through the <span style='color:red; font-weight: bold' >goal</span>?</p>",
		"case": "instruction",
		"responses": "No",
		"trial_type": "html-button-response-data",
		"trial_index": 92,
		"time_elapsed": 446687,
		"internal_node_id": "0.0-5.0-3.16"
	},
	{
		"rt": 470.29999999701977,
		"stimulus": "<div style=\"max-width:1000px;\"><img><img src=\"stim/Case3.png\" width=\"500\" height=\"375\"></img><p>Is <span style='color:green; font-weight: bold' >ball A</span> a cause of <b>ball E</b> going through the <span style='color:red; font-weight: bold' >goal</span>?</p><br /><br /></div>",
		"response": 0,
		"trial_type": "html-button-response",
		"trial_index": 93,
		"time_elapsed": 447159,
		"internal_node_id": "0.0-5.0-0.17"
	},
	{
		"rt": 6592.5,
		"stimulus": [
			"stim/Case3_Stim.mp4"
		],
		"response": 0,
		"trial_type": "video-button-response",
		"trial_index": 94,
		"time_elapsed": 453755,
		"internal_node_id": "0.0-5.0-1.17"
	},
	{
		"rt": null,
		"stimulus": [
			"stim/Case3_Stim.mp4"
		],
		"response": null,
		"trial_type": "video-button-response",
		"trial_index": 95,
		"time_elapsed": 459862,
		"internal_node_id": "0.0-5.0-2.17"
	},
	{
		"statement": "<p>Is <span style='color:green; font-weight: bold' >ball A</span> a cause of <b>ball E</b> going through the <span style='color:red; font-weight: bold' >goal</span>?</p>",
		"case": "instruction",
		"responses": "Yes",
		"trial_type": "html-button-response-data",
		"trial_index": 96,
		"time_elapsed": 460547,
		"internal_node_id": "0.0-5.0-3.17"
	},
	{
		"rt": 3060485.5,
		"stimulus": [
			"stim/5_minute_break.mp4"
		],
		"response": 0,
		"trial_type": "video-button-response",
		"trial_index": 97,
		"time_elapsed": 3521035,
		"internal_node_id": "0.0-6.0"
	},
	{
		"rt": 2449.7999999970198,
		"stimulus": "<div style=\"max-width:1000px;\"><br /><br /><br /><br /><br /><p> In this part of the experiment, you will first answer the following question after watching the videos twice:</p><p>If <span style='color:green; font-weight: bold' >ball A</span> had not been presented, would <b>ball E</b> still have gone through the <span style='color:red; font-weight: bold' >goal</span>?</p><br /><p> You will then watch the video one more time and answer the question:<p><p>Is <span style='color:green; font-weight: bold' >ball A</span> a cause of <b>ball E</b> going through the <span style='color:red; font-weight: bold' >goal</span>?</p><br /><br /></div>",
		"response": 0,
		"trial_type": "html-button-response",
		"trial_index": 98,
		"time_elapsed": 3523486,
		"internal_node_id": "0.0-7.0"
	},
	{
		"rt": 1591.7999999970198,
		"stimulus": "<div style=\"max-width:1000px;\"><img><img src=\"stim/Case12v.png\" width=\"500\" height=\"375\"></img><p>If <span style='color:green; font-weight: bold' >ball A</span> had not been presented, would <b>ball E</b> still have gone through the <span style='color:red; font-weight: bold' >goal</span>?</p><br /><br /></div>",
		"response": 0,
		"trial_type": "html-button-response",
		"trial_index": 99,
		"time_elapsed": 3525080,
		"internal_node_id": "0.0-8.0-0.0"
	},
	{
		"rt": 7598,
		"stimulus": [
			"stim/Case12v_Stim.mp4"
		],
		"response": 0,
		"trial_type": "video-button-response",
		"trial_index": 100,
		"time_elapsed": 3532681,
		"internal_node_id": "0.0-8.0-1.0"
	},
	{
		"rt": null,
		"stimulus": [
			"stim/Case12v_Stim.mp4"
		],
		"response": null,
		"trial_type": "video-button-response",
		"trial_index": 101,
		"time_elapsed": 3538771,
		"internal_node_id": "0.0-8.0-2.0"
	},
	{
		"statement": "<p>If <span style='color:green; font-weight: bold' >ball A</span> had not been presented, would <b>ball E</b> still have gone through the <span style='color:red; font-weight: bold' >goal</span>?</p>",
		"case": "instruction",
		"responses": "No",
		"trial_type": "html-button-response-data",
		"trial_index": 102,
		"time_elapsed": 3540581,
		"internal_node_id": "0.0-8.0-3.0"
	},
	{
		"rt": 1153.0999999940395,
		"stimulus": "<div style=\"max-width:1000px;\"><img><img src=\"stim/Case12v.png\" width=\"500\" height=\"375\"></img><p> Now watch the video one more time and answer:</p><p>Is <span style='color:green; font-weight: bold' >ball A</span> a cause of <b>ball E</b> going through the <span style='color:red; font-weight: bold' >goal</span>?</p><br /><br /></div>",
		"response": 0,
		"trial_type": "html-button-response",
		"trial_index": 103,
		"time_elapsed": 3541738,
		"internal_node_id": "0.0-8.0-4.0"
	},
	{
		"rt": null,
		"stimulus": [
			"stim/Case12v_Stim.mp4"
		],
		"response": null,
		"trial_type": "video-button-response",
		"trial_index": 104,
		"time_elapsed": 3547837,
		"internal_node_id": "0.0-8.0-5.0"
	},
	{
		"statement": "<p>Is <span style='color:green; font-weight: bold' >ball A</span> a cause of <b>ball E</b> going through the <span style='color:red; font-weight: bold' >goal</span>?</p>",
		"case": "instruction",
		"responses": "Yes",
		"trial_type": "html-button-response-data",
		"trial_index": 105,
		"time_elapsed": 3550651,
		"internal_node_id": "0.0-8.0-6.0"
	},
	{
		"rt": 1725.4000000059605,
		"stimulus": "<div style=\"max-width:1000px;\"><img><img src=\"stim/Case4v.png\" width=\"500\" height=\"375\"></img><p>If <span style='color:green; font-weight: bold' >ball A</span> had not been presented, would <b>ball E</b> still have gone through the <span style='color:red; font-weight: bold' >goal</span>?</p><br /><br /></div>",
		"response": 0,
		"trial_type": "html-button-response",
		"trial_index": 106,
		"time_elapsed": 3552379,
		"internal_node_id": "0.0-8.0-0.1"
	},
	{
		"rt": 6789.29999999702,
		"stimulus": [
			"stim/Case4v_Stim.mp4"
		],
		"response": 0,
		"trial_type": "video-button-response",
		"trial_index": 107,
		"time_elapsed": 3559171,
		"internal_node_id": "0.0-8.0-1.1"
	},
	{
		"rt": null,
		"stimulus": [
			"stim/Case4v_Stim.mp4"
		],
		"response": null,
		"trial_type": "video-button-response",
		"trial_index": 108,
		"time_elapsed": 3565268,
		"internal_node_id": "0.0-8.0-2.1"
	},
	{
		"statement": "<p>If <span style='color:green; font-weight: bold' >ball A</span> had not been presented, would <b>ball E</b> still have gone through the <span style='color:red; font-weight: bold' >goal</span>?</p>",
		"case": "instruction",
		"responses": "No",
		"trial_type": "html-button-response-data",
		"trial_index": 109,
		"time_elapsed": 3565990,
		"internal_node_id": "0.0-8.0-3.1"
	},
	{
		"rt": 1486.0999999940395,
		"stimulus": "<div style=\"max-width:1000px;\"><img><img src=\"stim/Case4v.png\" width=\"500\" height=\"375\"></img><p> Now watch the video one more time and answer:</p><p>Is <span style='color:green; font-weight: bold' >ball A</span> a cause of <b>ball E</b> going through the <span style='color:red; font-weight: bold' >goal</span>?</p><br /><br /></div>",
		"response": 0,
		"trial_type": "html-button-response",
		"trial_index": 110,
		"time_elapsed": 3567478,
		"internal_node_id": "0.0-8.0-4.1"
	},
	{
		"rt": null,
		"stimulus": [
			"stim/Case4v_Stim.mp4"
		],
		"response": null,
		"trial_type": "video-button-response",
		"trial_index": 111,
		"time_elapsed": 3573579,
		"internal_node_id": "0.0-8.0-5.1"
	},
	{
		"statement": "<p>Is <span style='color:green; font-weight: bold' >ball A</span> a cause of <b>ball E</b> going through the <span style='color:red; font-weight: bold' >goal</span>?</p>",
		"case": "instruction",
		"responses": "Yes",
		"trial_type": "html-button-response-data",
		"trial_index": 112,
		"time_elapsed": 3574253,
		"internal_node_id": "0.0-8.0-6.1"
	},
	{
		"rt": 1434.6000000089407,
		"stimulus": "<div style=\"max-width:1000px;\"><img><img src=\"stim/Case5v.png\" width=\"500\" height=\"375\"></img><p>If <span style='color:green; font-weight: bold' >ball A</span> had not been presented, would <b>ball E</b> still have gone through the <span style='color:red; font-weight: bold' >goal</span>?</p><br /><br /></div>",
		"response": 0,
		"trial_type": "html-button-response",
		"trial_index": 113,
		"time_elapsed": 3575689,
		"internal_node_id": "0.0-8.0-0.2"
	},
	{
		"rt": 6759.70000000298,
		"stimulus": [
			"stim/Case5v_Stim.mp4"
		],
		"response": 0,
		"trial_type": "video-button-response",
		"trial_index": 114,
		"time_elapsed": 3582452,
		"internal_node_id": "0.0-8.0-1.2"
	},
	{
		"rt": null,
		"stimulus": [
			"stim/Case5v_Stim.mp4"
		],
		"response": null,
		"trial_type": "video-button-response",
		"trial_index": 115,
		"time_elapsed": 3588527,
		"internal_node_id": "0.0-8.0-2.2"
	},
	{
		"statement": "<p>If <span style='color:green; font-weight: bold' >ball A</span> had not been presented, would <b>ball E</b> still have gone through the <span style='color:red; font-weight: bold' >goal</span>?</p>",
		"case": "instruction",
		"responses": "Yes",
		"trial_type": "html-button-response-data",
		"trial_index": 116,
		"time_elapsed": 3589550,
		"internal_node_id": "0.0-8.0-3.2"
	},
	{
		"rt": 1664.3999999910593,
		"stimulus": "<div style=\"max-width:1000px;\"><img><img src=\"stim/Case5v.png\" width=\"500\" height=\"375\"></img><p> Now watch the video one more time and answer:</p><p>Is <span style='color:green; font-weight: bold' >ball A</span> a cause of <b>ball E</b> going through the <span style='color:red; font-weight: bold' >goal</span>?</p><br /><br /></div>",
		"response": 0,
		"trial_type": "html-button-response",
		"trial_index": 117,
		"time_elapsed": 3591216,
		"internal_node_id": "0.0-8.0-4.2"
	},
	{
		"rt": null,
		"stimulus": [
			"stim/Case5v_Stim.mp4"
		],
		"response": null,
		"trial_type": "video-button-response",
		"trial_index": 118,
		"time_elapsed": 3597294,
		"internal_node_id": "0.0-8.0-5.2"
	},
	{
		"statement": "<p>Is <span style='color:green; font-weight: bold' >ball A</span> a cause of <b>ball E</b> going through the <span style='color:red; font-weight: bold' >goal</span>?</p>",
		"case": "instruction",
		"responses": "Yes",
		"trial_type": "html-button-response-data",
		"trial_index": 119,
		"time_elapsed": 3597988,
		"internal_node_id": "0.0-8.0-6.2"
	},
	{
		"rt": 997,
		"stimulus": "<div style=\"max-width:1000px;\"><img><img src=\"stim/Case10v.png\" width=\"500\" height=\"375\"></img><p>If <span style='color:green; font-weight: bold' >ball A</span> had not been presented, would <b>ball E</b> still have gone through the <span style='color:red; font-weight: bold' >goal</span>?</p><br /><br /></div>",
		"response": 0,
		"trial_type": "html-button-response",
		"trial_index": 120,
		"time_elapsed": 3598987,
		"internal_node_id": "0.0-8.0-0.3"
	},
	{
		"rt": 6607.79999999702,
		"stimulus": [
			"stim/Case10v_Stim.mp4"
		],
		"response": 0,
		"trial_type": "video-button-response",
		"trial_index": 121,
		"time_elapsed": 3605598,
		"internal_node_id": "0.0-8.0-1.3"
	},
	{
		"rt": null,
		"stimulus": [
			"stim/Case10v_Stim.mp4"
		],
		"response": null,
		"trial_type": "video-button-response",
		"trial_index": 122,
		"time_elapsed": 3611694,
		"internal_node_id": "0.0-8.0-2.3"
	},
	{
		"statement": "<p>If <span style='color:green; font-weight: bold' >ball A</span> had not been presented, would <b>ball E</b> still have gone through the <span style='color:red; font-weight: bold' >goal</span>?</p>",
		"case": "instruction",
		"responses": "No",
		"trial_type": "html-button-response-data",
		"trial_index": 123,
		"time_elapsed": 3612252,
		"internal_node_id": "0.0-8.0-3.3"
	},
	{
		"rt": 1129.2999999970198,
		"stimulus": "<div style=\"max-width:1000px;\"><img><img src=\"stim/Case10v.png\" width=\"500\" height=\"375\"></img><p> Now watch the video one more time and answer:</p><p>Is <span style='color:green; font-weight: bold' >ball A</span> a cause of <b>ball E</b> going through the <span style='color:red; font-weight: bold' >goal</span>?</p><br /><br /></div>",
		"response": 0,
		"trial_type": "html-button-response",
		"trial_index": 124,
		"time_elapsed": 3613384,
		"internal_node_id": "0.0-8.0-4.3"
	},
	{
		"rt": null,
		"stimulus": [
			"stim/Case10v_Stim.mp4"
		],
		"response": null,
		"trial_type": "video-button-response",
		"trial_index": 125,
		"time_elapsed": 3619503,
		"internal_node_id": "0.0-8.0-5.3"
	},
	{
		"statement": "<p>Is <span style='color:green; font-weight: bold' >ball A</span> a cause of <b>ball E</b> going through the <span style='color:red; font-weight: bold' >goal</span>?</p>",
		"case": "instruction",
		"responses": "Yes",
		"trial_type": "html-button-response-data",
		"trial_index": 126,
		"time_elapsed": 3621796,
		"internal_node_id": "0.0-8.0-6.3"
	},
	{
		"rt": 1134.5,
		"stimulus": "<div style=\"max-width:1000px;\"><img><img src=\"stim/Case13v.png\" width=\"500\" height=\"375\"></img><p>If <span style='color:green; font-weight: bold' >ball A</span> had not been presented, would <b>ball E</b> still have gone through the <span style='color:red; font-weight: bold' >goal</span>?</p><br /><br /></div>",
		"response": 0,
		"trial_type": "html-button-response",
		"trial_index": 127,
		"time_elapsed": 3622932,
		"internal_node_id": "0.0-8.0-0.4"
	},
	{
		"rt": 6729,
		"stimulus": [
			"stim/Case13v_Stim.mp4"
		],
		"response": 0,
		"trial_type": "video-button-response",
		"trial_index": 128,
		"time_elapsed": 3629664,
		"internal_node_id": "0.0-8.0-1.4"
	},
	{
		"rt": null,
		"stimulus": [
			"stim/Case13v_Stim.mp4"
		],
		"response": null,
		"trial_type": "video-button-response",
		"trial_index": 129,
		"time_elapsed": 3635744,
		"internal_node_id": "0.0-8.0-2.4"
	},
	{
		"statement": "<p>If <span style='color:green; font-weight: bold' >ball A</span> had not been presented, would <b>ball E</b> still have gone through the <span style='color:red; font-weight: bold' >goal</span>?</p>",
		"case": "instruction",
		"responses": "No",
		"trial_type": "html-button-response-data",
		"trial_index": 130,
		"time_elapsed": 3636430,
		"internal_node_id": "0.0-8.0-3.4"
	},
	{
		"rt": 885.4000000059605,
		"stimulus": "<div style=\"max-width:1000px;\"><img><img src=\"stim/Case13v.png\" width=\"500\" height=\"375\"></img><p> Now watch the video one more time and answer:</p><p>Is <span style='color:green; font-weight: bold' >ball A</span> a cause of <b>ball E</b> going through the <span style='color:red; font-weight: bold' >goal</span>?</p><br /><br /></div>",
		"response": 0,
		"trial_type": "html-button-response",
		"trial_index": 131,
		"time_elapsed": 3637317,
		"internal_node_id": "0.0-8.0-4.4"
	},
	{
		"rt": null,
		"stimulus": [
			"stim/Case13v_Stim.mp4"
		],
		"response": null,
		"trial_type": "video-button-response",
		"trial_index": 132,
		"time_elapsed": 3643409,
		"internal_node_id": "0.0-8.0-5.4"
	},
	{
		"statement": "<p>Is <span style='color:green; font-weight: bold' >ball A</span> a cause of <b>ball E</b> going through the <span style='color:red; font-weight: bold' >goal</span>?</p>",
		"case": "instruction",
		"responses": "Yes",
		"trial_type": "html-button-response-data",
		"trial_index": 133,
		"time_elapsed": 3645566,
		"internal_node_id": "0.0-8.0-6.4"
	},
	{
		"rt": 1309.7000000029802,
		"stimulus": "<div style=\"max-width:1000px;\"><img><img src=\"stim/Case2v.png\" width=\"500\" height=\"375\"></img><p>If <span style='color:green; font-weight: bold' >ball A</span> had not been presented, would <b>ball E</b> still have gone through the <span style='color:red; font-weight: bold' >goal</span>?</p><br /><br /></div>",
		"response": 0,
		"trial_type": "html-button-response",
		"trial_index": 134,
		"time_elapsed": 3646877,
		"internal_node_id": "0.0-8.0-0.5"
	},
	{
		"rt": 6509.300000011921,
		"stimulus": [
			"stim/Case2v_Stim.mp4"
		],
		"response": 0,
		"trial_type": "video-button-response",
		"trial_index": 135,
		"time_elapsed": 3653390,
		"internal_node_id": "0.0-8.0-1.5"
	},
	{
		"rt": null,
		"stimulus": [
			"stim/Case2v_Stim.mp4"
		],
		"response": null,
		"trial_type": "video-button-response",
		"trial_index": 136,
		"time_elapsed": 3659478,
		"internal_node_id": "0.0-8.0-2.5"
	},
	{
		"statement": "<p>If <span style='color:green; font-weight: bold' >ball A</span> had not been presented, would <b>ball E</b> still have gone through the <span style='color:red; font-weight: bold' >goal</span>?</p>",
		"case": "instruction",
		"responses": "No",
		"trial_type": "html-button-response-data",
		"trial_index": 137,
		"time_elapsed": 3660866,
		"internal_node_id": "0.0-8.0-3.5"
	},
	{
		"rt": 784.5,
		"stimulus": "<div style=\"max-width:1000px;\"><img><img src=\"stim/Case2v.png\" width=\"500\" height=\"375\"></img><p> Now watch the video one more time and answer:</p><p>Is <span style='color:green; font-weight: bold' >ball A</span> a cause of <b>ball E</b> going through the <span style='color:red; font-weight: bold' >goal</span>?</p><br /><br /></div>",
		"response": 0,
		"trial_type": "html-button-response",
		"trial_index": 138,
		"time_elapsed": 3661652,
		"internal_node_id": "0.0-8.0-4.5"
	},
	{
		"rt": null,
		"stimulus": [
			"stim/Case2v_Stim.mp4"
		],
		"response": null,
		"trial_type": "video-button-response",
		"trial_index": 139,
		"time_elapsed": 3667745,
		"internal_node_id": "0.0-8.0-5.5"
	},
	{
		"statement": "<p>Is <span style='color:green; font-weight: bold' >ball A</span> a cause of <b>ball E</b> going through the <span style='color:red; font-weight: bold' >goal</span>?</p>",
		"case": "instruction",
		"responses": "Yes",
		"trial_type": "html-button-response-data",
		"trial_index": 140,
		"time_elapsed": 3668787,
		"internal_node_id": "0.0-8.0-6.5"
	},
	{
		"rt": 933.2999999970198,
		"stimulus": "<div style=\"max-width:1000px;\"><img><img src=\"stim/Case7v.png\" width=\"500\" height=\"375\"></img><p>If <span style='color:green; font-weight: bold' >ball A</span> had not been presented, would <b>ball E</b> still have gone through the <span style='color:red; font-weight: bold' >goal</span>?</p><br /><br /></div>",
		"response": 0,
		"trial_type": "html-button-response",
		"trial_index": 141,
		"time_elapsed": 3669722,
		"internal_node_id": "0.0-8.0-0.6"
	},
	{
		"rt": 7024.4000000059605,
		"stimulus": [
			"stim/Case7v_Stim.mp4"
		],
		"response": 0,
		"trial_type": "video-button-response",
		"trial_index": 142,
		"time_elapsed": 3676750,
		"internal_node_id": "0.0-8.0-1.6"
	},
	{
		"rt": null,
		"stimulus": [
			"stim/Case7v_Stim.mp4"
		],
		"response": null,
		"trial_type": "video-button-response",
		"trial_index": 143,
		"time_elapsed": 3682828,
		"internal_node_id": "0.0-8.0-2.6"
	},
	{
		"statement": "<p>If <span style='color:green; font-weight: bold' >ball A</span> had not been presented, would <b>ball E</b> still have gone through the <span style='color:red; font-weight: bold' >goal</span>?</p>",
		"case": "instruction",
		"responses": "Yes",
		"trial_type": "html-button-response-data",
		"trial_index": 144,
		"time_elapsed": 3683652,
		"internal_node_id": "0.0-8.0-3.6"
	},
	{
		"rt": 1145,
		"stimulus": "<div style=\"max-width:1000px;\"><img><img src=\"stim/Case7v.png\" width=\"500\" height=\"375\"></img><p> Now watch the video one more time and answer:</p><p>Is <span style='color:green; font-weight: bold' >ball A</span> a cause of <b>ball E</b> going through the <span style='color:red; font-weight: bold' >goal</span>?</p><br /><br /></div>",
		"response": 0,
		"trial_type": "html-button-response",
		"trial_index": 145,
		"time_elapsed": 3684800,
		"internal_node_id": "0.0-8.0-4.6"
	},
	{
		"rt": null,
		"stimulus": [
			"stim/Case7v_Stim.mp4"
		],
		"response": null,
		"trial_type": "video-button-response",
		"trial_index": 146,
		"time_elapsed": 3690886,
		"internal_node_id": "0.0-8.0-5.6"
	},
	{
		"statement": "<p>Is <span style='color:green; font-weight: bold' >ball A</span> a cause of <b>ball E</b> going through the <span style='color:red; font-weight: bold' >goal</span>?</p>",
		"case": "instruction",
		"responses": "Yes",
		"trial_type": "html-button-response-data",
		"trial_index": 147,
		"time_elapsed": 3692090,
		"internal_node_id": "0.0-8.0-6.6"
	},
	{
		"rt": 966.0999999940395,
		"stimulus": "<div style=\"max-width:1000px;\"><img><img src=\"stim/Case11v.png\" width=\"500\" height=\"375\"></img><p>If <span style='color:green; font-weight: bold' >ball A</span> had not been presented, would <b>ball E</b> still have gone through the <span style='color:red; font-weight: bold' >goal</span>?</p><br /><br /></div>",
		"response": 0,
		"trial_type": "html-button-response",
		"trial_index": 148,
		"time_elapsed": 3693058,
		"internal_node_id": "0.0-8.0-0.7"
	},
	{
		"rt": 6495,
		"stimulus": [
			"stim/Case11v_Stim.mp4"
		],
		"response": 0,
		"trial_type": "video-button-response",
		"trial_index": 149,
		"time_elapsed": 3699556,
		"internal_node_id": "0.0-8.0-1.7"
	},
	{
		"rt": null,
		"stimulus": [
			"stim/Case11v_Stim.mp4"
		],
		"response": null,
		"trial_type": "video-button-response",
		"trial_index": 150,
		"time_elapsed": 3705662,
		"internal_node_id": "0.0-8.0-2.7"
	},
	{
		"statement": "<p>If <span style='color:green; font-weight: bold' >ball A</span> had not been presented, would <b>ball E</b> still have gone through the <span style='color:red; font-weight: bold' >goal</span>?</p>",
		"case": "instruction",
		"responses": "No",
		"trial_type": "html-button-response-data",
		"trial_index": 151,
		"time_elapsed": 3706520,
		"internal_node_id": "0.0-8.0-3.7"
	},
	{
		"rt": 691.2999999970198,
		"stimulus": "<div style=\"max-width:1000px;\"><img><img src=\"stim/Case11v.png\" width=\"500\" height=\"375\"></img><p> Now watch the video one more time and answer:</p><p>Is <span style='color:green; font-weight: bold' >ball A</span> a cause of <b>ball E</b> going through the <span style='color:red; font-weight: bold' >goal</span>?</p><br /><br /></div>",
		"response": 0,
		"trial_type": "html-button-response",
		"trial_index": 152,
		"time_elapsed": 3707214,
		"internal_node_id": "0.0-8.0-4.7"
	},
	{
		"rt": null,
		"stimulus": [
			"stim/Case11v_Stim.mp4"
		],
		"response": null,
		"trial_type": "video-button-response",
		"trial_index": 153,
		"time_elapsed": 3713285,
		"internal_node_id": "0.0-8.0-5.7"
	},
	{
		"statement": "<p>Is <span style='color:green; font-weight: bold' >ball A</span> a cause of <b>ball E</b> going through the <span style='color:red; font-weight: bold' >goal</span>?</p>",
		"case": "instruction",
		"responses": "Yes",
		"trial_type": "html-button-response-data",
		"trial_index": 154,
		"time_elapsed": 3714856,
		"internal_node_id": "0.0-8.0-6.7"
	},
	{
		"rt": 652.2999999970198,
		"stimulus": "<div style=\"max-width:1000px;\"><img><img src=\"stim/Case1v.png\" width=\"500\" height=\"375\"></img><p>If <span style='color:green; font-weight: bold' >ball A</span> had not been presented, would <b>ball E</b> still have gone through the <span style='color:red; font-weight: bold' >goal</span>?</p><br /><br /></div>",
		"response": 0,
		"trial_type": "html-button-response",
		"trial_index": 155,
		"time_elapsed": 3715510,
		"internal_node_id": "0.0-8.0-0.8"
	},
	{
		"rt": 6851.5,
		"stimulus": [
			"stim/Case1v_Stim.mp4"
		],
		"response": 0,
		"trial_type": "video-button-response",
		"trial_index": 156,
		"time_elapsed": 3722367,
		"internal_node_id": "0.0-8.0-1.8"
	},
	{
		"rt": null,
		"stimulus": [
			"stim/Case1v_Stim.mp4"
		],
		"response": null,
		"trial_type": "video-button-response",
		"trial_index": 157,
		"time_elapsed": 3728452,
		"internal_node_id": "0.0-8.0-2.8"
	},
	{
		"statement": "<p>If <span style='color:green; font-weight: bold' >ball A</span> had not been presented, would <b>ball E</b> still have gone through the <span style='color:red; font-weight: bold' >goal</span>?</p>",
		"case": "instruction",
		"responses": "No",
		"trial_type": "html-button-response-data",
		"trial_index": 158,
		"time_elapsed": 3729282,
		"internal_node_id": "0.0-8.0-3.8"
	},
	{
		"rt": 867.3999999910593,
		"stimulus": "<div style=\"max-width:1000px;\"><img><img src=\"stim/Case1v.png\" width=\"500\" height=\"375\"></img><p> Now watch the video one more time and answer:</p><p>Is <span style='color:green; font-weight: bold' >ball A</span> a cause of <b>ball E</b> going through the <span style='color:red; font-weight: bold' >goal</span>?</p><br /><br /></div>",
		"response": 0,
		"trial_type": "html-button-response",
		"trial_index": 159,
		"time_elapsed": 3730151,
		"internal_node_id": "0.0-8.0-4.8"
	},
	{
		"rt": null,
		"stimulus": [
			"stim/Case1v_Stim.mp4"
		],
		"response": null,
		"trial_type": "video-button-response",
		"trial_index": 160,
		"time_elapsed": 3736252,
		"internal_node_id": "0.0-8.0-5.8"
	},
	{
		"statement": "<p>Is <span style='color:green; font-weight: bold' >ball A</span> a cause of <b>ball E</b> going through the <span style='color:red; font-weight: bold' >goal</span>?</p>",
		"case": "instruction",
		"responses": "Yes",
		"trial_type": "html-button-response-data",
		"trial_index": 161,
		"time_elapsed": 3737313,
		"internal_node_id": "0.0-8.0-6.8"
	},
	{
		"rt": 841.7999999970198,
		"stimulus": "<div style=\"max-width:1000px;\"><img><img src=\"stim/Case16v.png\" width=\"500\" height=\"375\"></img><p>If <span style='color:green; font-weight: bold' >ball A</span> had not been presented, would <b>ball E</b> still have gone through the <span style='color:red; font-weight: bold' >goal</span>?</p><br /><br /></div>",
		"response": 0,
		"trial_type": "html-button-response",
		"trial_index": 162,
		"time_elapsed": 3738157,
		"internal_node_id": "0.0-8.0-0.9"
	},
	{
		"rt": 7091.0999999940395,
		"stimulus": [
			"stim/Case16v_Stim.mp4"
		],
		"response": 0,
		"trial_type": "video-button-response",
		"trial_index": 163,
		"time_elapsed": 3745252,
		"internal_node_id": "0.0-8.0-1.9"
	},
	{
		"rt": null,
		"stimulus": [
			"stim/Case16v_Stim.mp4"
		],
		"response": null,
		"trial_type": "video-button-response",
		"trial_index": 164,
		"time_elapsed": 3751326,
		"internal_node_id": "0.0-8.0-2.9"
	},
	{
		"statement": "<p>If <span style='color:green; font-weight: bold' >ball A</span> had not been presented, would <b>ball E</b> still have gone through the <span style='color:red; font-weight: bold' >goal</span>?</p>",
		"case": "instruction",
		"responses": "Yes",
		"trial_type": "html-button-response-data",
		"trial_index": 165,
		"time_elapsed": 3752156,
		"internal_node_id": "0.0-8.0-3.9"
	},
	{
		"rt": 1207.199999988079,
		"stimulus": "<div style=\"max-width:1000px;\"><img><img src=\"stim/Case16v.png\" width=\"500\" height=\"375\"></img><p> Now watch the video one more time and answer:</p><p>Is <span style='color:green; font-weight: bold' >ball A</span> a cause of <b>ball E</b> going through the <span style='color:red; font-weight: bold' >goal</span>?</p><br /><br /></div>",
		"response": 0,
		"trial_type": "html-button-response",
		"trial_index": 166,
		"time_elapsed": 3753365,
		"internal_node_id": "0.0-8.0-4.9"
	},
	{
		"rt": null,
		"stimulus": [
			"stim/Case16v_Stim.mp4"
		],
		"response": null,
		"trial_type": "video-button-response",
		"trial_index": 167,
		"time_elapsed": 3759470,
		"internal_node_id": "0.0-8.0-5.9"
	},
	{
		"statement": "<p>Is <span style='color:green; font-weight: bold' >ball A</span> a cause of <b>ball E</b> going through the <span style='color:red; font-weight: bold' >goal</span>?</p>",
		"case": "instruction",
		"responses": "Yes",
		"trial_type": "html-button-response-data",
		"trial_index": 168,
		"time_elapsed": 3760625,
		"internal_node_id": "0.0-8.0-6.9"
	},
	{
		"rt": 1469,
		"stimulus": "<div style=\"max-width:1000px;\"><img><img src=\"stim/Case0v.png\" width=\"500\" height=\"375\"></img><p>If <span style='color:green; font-weight: bold' >ball A</span> had not been presented, would <b>ball E</b> still have gone through the <span style='color:red; font-weight: bold' >goal</span>?</p><br /><br /></div>",
		"response": 0,
		"trial_type": "html-button-response",
		"trial_index": 169,
		"time_elapsed": 3762096,
		"internal_node_id": "0.0-8.0-0.10"
	},
	{
		"rt": 6991.4000000059605,
		"stimulus": [
			"stim/Case0v_Stim.mp4"
		],
		"response": 0,
		"trial_type": "video-button-response",
		"trial_index": 170,
		"time_elapsed": 3769090,
		"internal_node_id": "0.0-8.0-1.10"
	},
	{
		"rt": null,
		"stimulus": [
			"stim/Case0v_Stim.mp4"
		],
		"response": null,
		"trial_type": "video-button-response",
		"trial_index": 171,
		"time_elapsed": 3775195,
		"internal_node_id": "0.0-8.0-2.10"
	},
	{
		"statement": "<p>If <span style='color:green; font-weight: bold' >ball A</span> had not been presented, would <b>ball E</b> still have gone through the <span style='color:red; font-weight: bold' >goal</span>?</p>",
		"case": "instruction",
		"responses": "No",
		"trial_type": "html-button-response-data",
		"trial_index": 172,
		"time_elapsed": 3776050,
		"internal_node_id": "0.0-8.0-3.10"
	},
	{
		"rt": 938.0999999940395,
		"stimulus": "<div style=\"max-width:1000px;\"><img><img src=\"stim/Case0v.png\" width=\"500\" height=\"375\"></img><p> Now watch the video one more time and answer:</p><p>Is <span style='color:green; font-weight: bold' >ball A</span> a cause of <b>ball E</b> going through the <span style='color:red; font-weight: bold' >goal</span>?</p><br /><br /></div>",
		"response": 0,
		"trial_type": "html-button-response",
		"trial_index": 173,
		"time_elapsed": 3776990,
		"internal_node_id": "0.0-8.0-4.10"
	},
	{
		"rt": null,
		"stimulus": [
			"stim/Case0v_Stim.mp4"
		],
		"response": null,
		"trial_type": "video-button-response",
		"trial_index": 174,
		"time_elapsed": 3783060,
		"internal_node_id": "0.0-8.0-5.10"
	},
	{
		"statement": "<p>Is <span style='color:green; font-weight: bold' >ball A</span> a cause of <b>ball E</b> going through the <span style='color:red; font-weight: bold' >goal</span>?</p>",
		"case": "instruction",
		"responses": "Yes",
		"trial_type": "html-button-response-data",
		"trial_index": 175,
		"time_elapsed": 3783878,
		"internal_node_id": "0.0-8.0-6.10"
	},
	{
		"rt": 680.5,
		"stimulus": "<div style=\"max-width:1000px;\"><img><img src=\"stim/Case8v.png\" width=\"500\" height=\"375\"></img><p>If <span style='color:green; font-weight: bold' >ball A</span> had not been presented, would <b>ball E</b> still have gone through the <span style='color:red; font-weight: bold' >goal</span>?</p><br /><br /></div>",
		"response": 0,
		"trial_type": "html-button-response",
		"trial_index": 176,
		"time_elapsed": 3784561,
		"internal_node_id": "0.0-8.0-0.11"
	},
	{
		"rt": 8871.59999999404,
		"stimulus": [
			"stim/Case8v_Stim.mp4"
		],
		"response": 0,
		"trial_type": "video-button-response",
		"trial_index": 177,
		"time_elapsed": 3793437,
		"internal_node_id": "0.0-8.0-1.11"
	},
	{
		"rt": null,
		"stimulus": [
			"stim/Case8v_Stim.mp4"
		],
		"response": null,
		"trial_type": "video-button-response",
		"trial_index": 178,
		"time_elapsed": 3799514,
		"internal_node_id": "0.0-8.0-2.11"
	},
	{
		"statement": "<p>If <span style='color:green; font-weight: bold' >ball A</span> had not been presented, would <b>ball E</b> still have gone through the <span style='color:red; font-weight: bold' >goal</span>?</p>",
		"case": "instruction",
		"responses": "Yes",
		"trial_type": "html-button-response-data",
		"trial_index": 179,
		"time_elapsed": 3800043,
		"internal_node_id": "0.0-8.0-3.11"
	},
	{
		"rt": 690,
		"stimulus": "<div style=\"max-width:1000px;\"><img><img src=\"stim/Case8v.png\" width=\"500\" height=\"375\"></img><p> Now watch the video one more time and answer:</p><p>Is <span style='color:green; font-weight: bold' >ball A</span> a cause of <b>ball E</b> going through the <span style='color:red; font-weight: bold' >goal</span>?</p><br /><br /></div>",
		"response": 0,
		"trial_type": "html-button-response",
		"trial_index": 180,
		"time_elapsed": 3800736,
		"internal_node_id": "0.0-8.0-4.11"
	},
	{
		"rt": null,
		"stimulus": [
			"stim/Case8v_Stim.mp4"
		],
		"response": null,
		"trial_type": "video-button-response",
		"trial_index": 181,
		"time_elapsed": 3806817,
		"internal_node_id": "0.0-8.0-5.11"
	},
	{
		"statement": "<p>Is <span style='color:green; font-weight: bold' >ball A</span> a cause of <b>ball E</b> going through the <span style='color:red; font-weight: bold' >goal</span>?</p>",
		"case": "instruction",
		"responses": "Yes",
		"trial_type": "html-button-response-data",
		"trial_index": 182,
		"time_elapsed": 3810879,
		"internal_node_id": "0.0-8.0-6.11"
	},
	{
		"rt": 750.1000000089407,
		"stimulus": "<div style=\"max-width:1000px;\"><img><img src=\"stim/Case6v.png\" width=\"500\" height=\"375\"></img><p>If <span style='color:green; font-weight: bold' >ball A</span> had not been presented, would <b>ball E</b> still have gone through the <span style='color:red; font-weight: bold' >goal</span>?</p><br /><br /></div>",
		"response": 0,
		"trial_type": "html-button-response",
		"trial_index": 183,
		"time_elapsed": 3811631,
		"internal_node_id": "0.0-8.0-0.12"
	},
	{
		"rt": 16435.20000000298,
		"stimulus": [
			"stim/Case6v_Stim.mp4"
		],
		"response": 0,
		"trial_type": "video-button-response",
		"trial_index": 184,
		"time_elapsed": 3828070,
		"internal_node_id": "0.0-8.0-1.12"
	},
	{
		"rt": null,
		"stimulus": [
			"stim/Case6v_Stim.mp4"
		],
		"response": null,
		"trial_type": "video-button-response",
		"trial_index": 185,
		"time_elapsed": 3834126,
		"internal_node_id": "0.0-8.0-2.12"
	},
	{
		"statement": "<p>If <span style='color:green; font-weight: bold' >ball A</span> had not been presented, would <b>ball E</b> still have gone through the <span style='color:red; font-weight: bold' >goal</span>?</p>",
		"case": "instruction",
		"responses": "No",
		"trial_type": "html-button-response-data",
		"trial_index": 186,
		"time_elapsed": 3836079,
		"internal_node_id": "0.0-8.0-3.12"
	},
	{
		"rt": 907,
		"stimulus": "<div style=\"max-width:1000px;\"><img><img src=\"stim/Case6v.png\" width=\"500\" height=\"375\"></img><p> Now watch the video one more time and answer:</p><p>Is <span style='color:green; font-weight: bold' >ball A</span> a cause of <b>ball E</b> going through the <span style='color:red; font-weight: bold' >goal</span>?</p><br /><br /></div>",
		"response": 0,
		"trial_type": "html-button-response",
		"trial_index": 187,
		"time_elapsed": 3836987,
		"internal_node_id": "0.0-8.0-4.12"
	},
	{
		"rt": null,
		"stimulus": [
			"stim/Case6v_Stim.mp4"
		],
		"response": null,
		"trial_type": "video-button-response",
		"trial_index": 188,
		"time_elapsed": 3843058,
		"internal_node_id": "0.0-8.0-5.12"
	},
	{
		"statement": "<p>Is <span style='color:green; font-weight: bold' >ball A</span> a cause of <b>ball E</b> going through the <span style='color:red; font-weight: bold' >goal</span>?</p>",
		"case": "instruction",
		"responses": "Yes",
		"trial_type": "html-button-response-data",
		"trial_index": 189,
		"time_elapsed": 3844422,
		"internal_node_id": "0.0-8.0-6.12"
	},
	{
		"rt": 680.2999999970198,
		"stimulus": "<div style=\"max-width:1000px;\"><img><img src=\"stim/Case15v.png\" width=\"500\" height=\"375\"></img><p>If <span style='color:green; font-weight: bold' >ball A</span> had not been presented, would <b>ball E</b> still have gone through the <span style='color:red; font-weight: bold' >goal</span>?</p><br /><br /></div>",
		"response": 0,
		"trial_type": "html-button-response",
		"trial_index": 190,
		"time_elapsed": 3845105,
		"internal_node_id": "0.0-8.0-0.13"
	},
	{
		"rt": 7796.0999999940395,
		"stimulus": [
			"stim/Case15v_Stim.mp4"
		],
		"response": 0,
		"trial_type": "video-button-response",
		"trial_index": 191,
		"time_elapsed": 3852905,
		"internal_node_id": "0.0-8.0-1.13"
	},
	{
		"rt": null,
		"stimulus": [
			"stim/Case15v_Stim.mp4"
		],
		"response": null,
		"trial_type": "video-button-response",
		"trial_index": 192,
		"time_elapsed": 3858994,
		"internal_node_id": "0.0-8.0-2.13"
	},
	{
		"statement": "<p>If <span style='color:green; font-weight: bold' >ball A</span> had not been presented, would <b>ball E</b> still have gone through the <span style='color:red; font-weight: bold' >goal</span>?</p>",
		"case": "instruction",
		"responses": "No",
		"trial_type": "html-button-response-data",
		"trial_index": 193,
		"time_elapsed": 3859962,
		"internal_node_id": "0.0-8.0-3.13"
	},
	{
		"rt": 815.8999999910593,
		"stimulus": "<div style=\"max-width:1000px;\"><img><img src=\"stim/Case15v.png\" width=\"500\" height=\"375\"></img><p> Now watch the video one more time and answer:</p><p>Is <span style='color:green; font-weight: bold' >ball A</span> a cause of <b>ball E</b> going through the <span style='color:red; font-weight: bold' >goal</span>?</p><br /><br /></div>",
		"response": 0,
		"trial_type": "html-button-response",
		"trial_index": 194,
		"time_elapsed": 3860780,
		"internal_node_id": "0.0-8.0-4.13"
	},
	{
		"rt": null,
		"stimulus": [
			"stim/Case15v_Stim.mp4"
		],
		"response": null,
		"trial_type": "video-button-response",
		"trial_index": 195,
		"time_elapsed": 3866876,
		"internal_node_id": "0.0-8.0-5.13"
	},
	{
		"statement": "<p>Is <span style='color:green; font-weight: bold' >ball A</span> a cause of <b>ball E</b> going through the <span style='color:red; font-weight: bold' >goal</span>?</p>",
		"case": "instruction",
		"responses": "Yes",
		"trial_type": "html-button-response-data",
		"trial_index": 196,
		"time_elapsed": 3877034,
		"internal_node_id": "0.0-8.0-6.13"
	},
	{
		"rt": 3726.7999999970198,
		"stimulus": "<div style=\"max-width:1000px;\"><img><img src=\"stim/Case3v.png\" width=\"500\" height=\"375\"></img><p>If <span style='color:green; font-weight: bold' >ball A</span> had not been presented, would <b>ball E</b> still have gone through the <span style='color:red; font-weight: bold' >goal</span>?</p><br /><br /></div>",
		"response": 0,
		"trial_type": "html-button-response",
		"trial_index": 197,
		"time_elapsed": 3880763,
		"internal_node_id": "0.0-8.0-0.14"
	},
	{
		"rt": 77884.29999999702,
		"stimulus": [
			"stim/Case3v_Stim.mp4"
		],
		"response": 0,
		"trial_type": "video-button-response",
		"trial_index": 198,
		"time_elapsed": 3958651,
		"internal_node_id": "0.0-8.0-1.14"
	},
	{
		"rt": null,
		"stimulus": [
			"stim/Case3v_Stim.mp4"
		],
		"response": null,
		"trial_type": "video-button-response",
		"trial_index": 199,
		"time_elapsed": 3964736,
		"internal_node_id": "0.0-8.0-2.14"
	},
	{
		"statement": "<p>If <span style='color:green; font-weight: bold' >ball A</span> had not been presented, would <b>ball E</b> still have gone through the <span style='color:red; font-weight: bold' >goal</span>?</p>",
		"case": "instruction",
		"responses": "No",
		"trial_type": "html-button-response-data",
		"trial_index": 200,
		"time_elapsed": 3965798,
		"internal_node_id": "0.0-8.0-3.14"
	},
	{
		"rt": 815.1999999880791,
		"stimulus": "<div style=\"max-width:1000px;\"><img><img src=\"stim/Case3v.png\" width=\"500\" height=\"375\"></img><p> Now watch the video one more time and answer:</p><p>Is <span style='color:green; font-weight: bold' >ball A</span> a cause of <b>ball E</b> going through the <span style='color:red; font-weight: bold' >goal</span>?</p><br /><br /></div>",
		"response": 0,
		"trial_type": "html-button-response",
		"trial_index": 201,
		"time_elapsed": 3966615,
		"internal_node_id": "0.0-8.0-4.14"
	},
	{
		"rt": null,
		"stimulus": [
			"stim/Case3v_Stim.mp4"
		],
		"response": null,
		"trial_type": "video-button-response",
		"trial_index": 202,
		"time_elapsed": 3972708,
		"internal_node_id": "0.0-8.0-5.14"
	},
	{
		"statement": "<p>Is <span style='color:green; font-weight: bold' >ball A</span> a cause of <b>ball E</b> going through the <span style='color:red; font-weight: bold' >goal</span>?</p>",
		"case": "instruction",
		"responses": "Yes",
		"trial_type": "html-button-response-data",
		"trial_index": 203,
		"time_elapsed": 3973282,
		"internal_node_id": "0.0-8.0-6.14"
	},
	{
		"rt": 616.3999999910593,
		"stimulus": "<div style=\"max-width:1000px;\"><img><img src=\"stim/Case14v.png\" width=\"500\" height=\"375\"></img><p>If <span style='color:green; font-weight: bold' >ball A</span> had not been presented, would <b>ball E</b> still have gone through the <span style='color:red; font-weight: bold' >goal</span>?</p><br /><br /></div>",
		"response": 0,
		"trial_type": "html-button-response",
		"trial_index": 204,
		"time_elapsed": 3973901,
		"internal_node_id": "0.0-8.0-0.15"
	},
	{
		"rt": 6845.5,
		"stimulus": [
			"stim/Case14v_Stim.mp4"
		],
		"response": 0,
		"trial_type": "video-button-response",
		"trial_index": 205,
		"time_elapsed": 3980749,
		"internal_node_id": "0.0-8.0-1.15"
	},
	{
		"rt": null,
		"stimulus": [
			"stim/Case14v_Stim.mp4"
		],
		"response": null,
		"trial_type": "video-button-response",
		"trial_index": 206,
		"time_elapsed": 3986833,
		"internal_node_id": "0.0-8.0-2.15"
	},
	{
		"statement": "<p>If <span style='color:green; font-weight: bold' >ball A</span> had not been presented, would <b>ball E</b> still have gone through the <span style='color:red; font-weight: bold' >goal</span>?</p>",
		"case": "instruction",
		"responses": "Yes",
		"trial_type": "html-button-response-data",
		"trial_index": 207,
		"time_elapsed": 3987589,
		"internal_node_id": "0.0-8.0-3.15"
	},
	{
		"rt": 1011,
		"stimulus": "<div style=\"max-width:1000px;\"><img><img src=\"stim/Case14v.png\" width=\"500\" height=\"375\"></img><p> Now watch the video one more time and answer:</p><p>Is <span style='color:green; font-weight: bold' >ball A</span> a cause of <b>ball E</b> going through the <span style='color:red; font-weight: bold' >goal</span>?</p><br /><br /></div>",
		"response": 0,
		"trial_type": "html-button-response",
		"trial_index": 208,
		"time_elapsed": 3988602,
		"internal_node_id": "0.0-8.0-4.15"
	},
	{
		"rt": null,
		"stimulus": [
			"stim/Case14v_Stim.mp4"
		],
		"response": null,
		"trial_type": "video-button-response",
		"trial_index": 209,
		"time_elapsed": 3994692,
		"internal_node_id": "0.0-8.0-5.15"
	},
	{
		"statement": "<p>Is <span style='color:green; font-weight: bold' >ball A</span> a cause of <b>ball E</b> going through the <span style='color:red; font-weight: bold' >goal</span>?</p>",
		"case": "instruction",
		"responses": "No",
		"trial_type": "html-button-response-data",
		"trial_index": 210,
		"time_elapsed": 3997742,
		"internal_node_id": "0.0-8.0-6.15"
	},
	{
		"rt": 665.5999999940395,
		"stimulus": "<div style=\"max-width:1000px;\"><img><img src=\"stim/Case9v.png\" width=\"500\" height=\"375\"></img><p>If <span style='color:green; font-weight: bold' >ball A</span> had not been presented, would <b>ball E</b> still have gone through the <span style='color:red; font-weight: bold' >goal</span>?</p><br /><br /></div>",
		"response": 0,
		"trial_type": "html-button-response",
		"trial_index": 211,
		"time_elapsed": 3998409,
		"internal_node_id": "0.0-8.0-0.16"
	},
	{
		"rt": 13626.70000000298,
		"stimulus": [
			"stim/Case9v_Stim.mp4"
		],
		"response": 0,
		"trial_type": "video-button-response",
		"trial_index": 212,
		"time_elapsed": 4012039,
		"internal_node_id": "0.0-8.0-1.16"
	},
	{
		"rt": null,
		"stimulus": [
			"stim/Case9v_Stim.mp4"
		],
		"response": null,
		"trial_type": "video-button-response",
		"trial_index": 213,
		"time_elapsed": 4018121,
		"internal_node_id": "0.0-8.0-2.16"
	},
	{
		"statement": "<p>If <span style='color:green; font-weight: bold' >ball A</span> had not been presented, would <b>ball E</b> still have gone through the <span style='color:red; font-weight: bold' >goal</span>?</p>",
		"case": "instruction",
		"responses": "No",
		"trial_type": "html-button-response-data",
		"trial_index": 214,
		"time_elapsed": 4019653,
		"internal_node_id": "0.0-8.0-3.16"
	},
	{
		"rt": 515.7999999970198,
		"stimulus": "<div style=\"max-width:1000px;\"><img><img src=\"stim/Case9v.png\" width=\"500\" height=\"375\"></img><p> Now watch the video one more time and answer:</p><p>Is <span style='color:green; font-weight: bold' >ball A</span> a cause of <b>ball E</b> going through the <span style='color:red; font-weight: bold' >goal</span>?</p><br /><br /></div>",
		"response": 0,
		"trial_type": "html-button-response",
		"trial_index": 215,
		"time_elapsed": 4020171,
		"internal_node_id": "0.0-8.0-4.16"
	},
	{
		"rt": null,
		"stimulus": [
			"stim/Case9v_Stim.mp4"
		],
		"response": null,
		"trial_type": "video-button-response",
		"trial_index": 216,
		"time_elapsed": 4026269,
		"internal_node_id": "0.0-8.0-5.16"
	},
	{
		"statement": "<p>Is <span style='color:green; font-weight: bold' >ball A</span> a cause of <b>ball E</b> going through the <span style='color:red; font-weight: bold' >goal</span>?</p>",
		"case": "instruction",
		"responses": "Yes",
		"trial_type": "html-button-response-data",
		"trial_index": 217,
		"time_elapsed": 4028234,
		"internal_node_id": "0.0-8.0-6.16"
	},
	{
		"rt": 17847.60000000894,
		"responses": "{\"feedback\":\"\",\"age\":\"22\",\"gender\":\"Male\",\"other_gender\":\"\",\"race\":\"Asian\",\"other_race\":\"\",\"ethnicity\":\"Non-Hispanic\"}",
		"trial_type": "survey-html-form",
		"trial_index": 218,
		"time_elapsed": 4046084,
		"internal_node_id": "0.0-9.0"
	},
	{
		"success": true,
		"trial_type": "fullscreen",
		"trial_index": 219,
		"time_elapsed": 4047090,
		"internal_node_id": "0.0-10.0"
	},
	{
		"rt": 9297.40000000596,
		"stimulus": "<div style=\"margin: auto;\"> <p> Thank you for participating in this experiment! </p><p> Your browser will automatically download the data for you after you click on the download button.</p><p> Please send the downloaded data to huangajq@iu.edu, thank you!",
		"response": 0,
		"trial_type": "html-button-response",
		"trial_index": 220,
		"time_elapsed": 4056391,
		"internal_node_id": "0.0-11.0"
	}
]